flex1,flex2,flex3,flex4,flex5,gyroRotX,gyroRotY,gyroRotZ,gyroAccX,gyroAccY,gyroAccZ,Alphabet
270,29,60,55,41,-2.42,9.33,-0.69,-0.09,-0.12,0.08,A
269,29,61,55,41,-2.34,9.31,-0.91,-0.08,-0.07,0.09,A
269,28,61,55,41,-2.07,9.31,-0.99,-0.12,0,0.04,A
269,28,60,55,41,-2.57,9.27,-1.13,-0.15,0,0.09,A
269,28,61,56,41,-2.57,9.27,-1.1,-0.2,-0.01,0.09,A
269,28,61,56,41,-2.01,9.54,-0.83,-0.2,-0.03,0.06,A
269,28,61,56,41,-1.97,9.53,-0.6,-0.18,-0.01,0.03,A
270,29,61,56,41,-1.61,9.5,-0.84,-0.21,-0.04,0.05,A
270,28,61,56,41,-2.3,9.36,-0.21,-0.13,-0.16,-0.06,A
270,29,61,55,41,-2.46,9.42,-0.61,-0.04,-0.09,0,A
270,29,61,56,40,-2.36,9.26,-0.77,-0.08,-0.07,0.01,A
270,29,61,55,41,-2.29,9.23,-0.73,-0.09,-0.04,0.02,A
270,28,61,56,41,-2.42,9.42,-0.54,-0.09,0,0.04,A
270,29,61,56,41,-2.38,9.29,-1.2,-0.07,0.06,0.03,A
270,29,61,56,41,-2.18,9.36,-0.78,-0.15,-0.05,0.02,A
270,29,61,56,41,-2.08,9.41,-0.74,-0.14,0.03,0.01,A
270,29,61,56,41,-2.34,9.52,-0.4,-0.12,0,0.02,A
270,28,61,56,41,-2.25,9.37,-0.8,-0.08,-0.02,0.02,A
270,29,61,56,41,-2.38,9.28,-0.96,-0.13,0.05,0.04,A
270,28,61,55,41,-2.16,9.42,-0.75,-0.12,-0.05,0.01,A
270,29,61,56,41,-2.23,9.43,-0.27,-0.09,-0.03,0.04,A
270,29,61,56,41,-2.14,9.23,-0.97,-0.05,0.08,-0.01,A
270,29,61,56,41,-2.35,9.31,-0.88,-0.13,0.18,0.01,A
270,29,61,56,41,-2.3,9.53,-0.56,-0.07,-0.02,0,A
270,29,61,56,41,-2.11,9.29,-0.59,-0.01,0.09,-0.02,A
270,28,61,56,41,-2.07,9.46,-1.29,-0.06,-0.09,0.04,A
270,29,61,56,41,-2.06,9.34,-0.84,-0.13,0.1,-0.01,A
270,29,61,56,41,-2.24,9.4,-0.77,-0.09,-0.08,-0.02,A
270,28,61,56,41,-2.3,9.32,-0.9,-0.07,0.08,-0.02,A
270,29,61,56,41,-2.25,9.35,-0.93,-0.12,0.03,0,A
270,28,61,56,41,-2.21,9.42,-0.63,-0.09,-0.04,0.02,A
270,29,61,56,41,-2.33,9.43,-0.88,-0.02,-0.03,-0.02,A
270,29,61,56,41,-2.57,9.37,-1.2,-0.04,-0.04,0.03,A
270,29,61,56,41,-2.39,8.98,-1.14,-0.09,-0.12,0.01,A
270,29,61,56,41,-2.64,9.37,-1.1,-0.16,0.01,0.08,A
270,29,61,56,42,-2.32,9.45,-0.67,-0.15,-0.04,0.09,A
270,29,61,56,42,-2.07,9.39,-0.5,-0.11,-0.1,0.09,A
270,28,61,56,41,-2,9.43,-1.15,-0.09,0.02,0.08,A
270,29,62,56,42,-2.06,9.38,-1.13,-0.14,-0.06,0.05,A
270,29,61,56,41,-2.22,9.45,-0.76,-0.14,-0.01,0.06,A
270,29,61,56,41,-1.82,9.4,-0.55,-0.09,-0.04,0.03,A
270,29,61,56,42,-1.95,9.49,-0.9,-0.08,0.02,0.01,A
270,28,61,56,41,-1.97,9.32,-1.02,-0.1,-0.02,0,A
270,28,61,56,41,-2.21,9.43,-0.84,-0.09,0.03,0.01,A
270,28,61,56,41,-2.13,9.41,-0.98,-0.09,-0.02,0.02,A
270,29,61,56,41,-2.28,9.33,-1.11,-0.1,0,0.02,A
270,29,61,56,41,-2.22,9.34,-1.02,-0.12,-0.03,0.04,A
270,28,61,56,42,-2.05,9.52,-0.9,-0.11,-0.02,0.03,A
270,29,61,56,42,-1.93,9.48,-1.06,-0.1,-0.01,0.01,A
270,29,61,56,41,-2.09,9.47,-0.91,-0.1,-0.02,0.01,A
270,29,61,56,42,-2.07,9.45,-0.86,-0.1,0.02,0,A
269,28,61,56,42,-2.14,9.29,-0.8,-0.08,-0.04,-0.04,A
270,28,62,56,41,-2.34,9.35,-1.08,-0.08,-0.02,0,A
270,28,62,56,41,-2.18,9.36,-0.97,-0.13,-0.02,0.04,A
270,28,62,56,41,-1.99,9.56,-0.67,-0.12,-0.02,0.05,A
269,28,61,56,41,-1.84,9.45,-0.75,-0.06,0,0,A
269,28,61,56,42,-2.11,9.42,-1,-0.06,0.04,-0.02,A
269,28,61,56,42,-2.18,9.39,-1.22,-0.07,0,0,A
269,28,61,56,41,-2.01,9.49,-1.03,-0.1,0,0,A
269,28,62,56,42,-2.33,9.34,-0.67,-0.09,0.02,0.01,A
269,28,61,56,41,-2.13,9.36,-1.17,-0.06,-0.07,0,A
269,29,61,56,41,-2.16,9.38,-1.07,-0.12,0.01,0.02,A
269,28,61,56,42,-2.15,9.39,-1.02,-0.09,0,0.01,A
269,29,61,56,42,-2.2,9.42,-0.89,-0.08,0,0.03,A
269,28,61,57,41,-2.04,9.32,-1,-0.06,-0.08,0.03,A
269,29,62,56,42,-2.23,9.28,-1.33,-0.07,0.04,0,A
269,28,61,56,41,-2.1,9.37,-1.27,-0.11,-0.04,0.01,A
269,28,62,56,42,-2.18,9.4,-1.19,-0.17,0.04,0.02,A
269,29,62,56,42,-2.07,9.4,-0.94,-0.14,0.01,-0.01,A
268,29,62,56,42,-2.16,9.44,-0.95,-0.11,0.03,-0.01,A
268,28,61,56,42,-2.34,9.34,-0.99,-0.09,0.03,0,A
269,28,62,57,42,-2.05,9.38,-1.2,-0.09,0,0.01,A
268,28,62,56,42,-2.07,9.47,-0.87,-0.11,-0.07,0.04,A
268,29,61,56,42,-2.23,9.39,-1.36,-0.08,0.01,0.02,A
268,28,62,56,42,-2.15,9.29,-1.19,-0.14,0.01,0.04,A
268,29,62,56,42,-2.09,9.47,-0.96,-0.1,-0.04,0.01,A
268,28,61,56,42,-1.98,9.42,-1.11,-0.09,0,0.01,A
268,28,62,56,42,-2.09,9.34,-1.24,-0.11,0.02,0.01,A
268,28,62,56,42,-2.07,9.43,-1.03,-0.12,0.06,0.03,A
268,28,62,57,42,-2.09,9.35,-1.38,-0.07,0,0.01,A
268,29,62,57,42,-2.05,9.4,-1.42,-0.15,-0.02,0,A
268,28,62,56,42,-2.27,9.37,-0.74,-0.17,0.01,0.03,A
268,28,62,56,42,-1.89,9.65,-1.02,-0.1,-0.05,0.1,A
268,28,62,56,42,-1.82,9.28,-0.94,-0.08,-0.06,0.03,A
268,28,62,56,42,-2.37,9.39,-1.32,-0.08,0.02,-0.01,A
268,29,62,57,42,-2.44,9.43,-1.08,-0.12,-0.01,0.07,A
268,28,62,57,42,-1.91,9.44,-1.19,-0.1,-0.08,0.06,A
268,29,61,56,42,-1.96,9.49,-1.21,-0.11,0.1,0.05,A
268,28,62,57,41,-1.78,9.4,-1.19,-0.13,0.01,0.03,A
268,29,62,56,42,-2.29,9.4,-0.98,-0.16,0.04,0,A
268,29,62,56,42,-2.23,9.43,-0.87,-0.08,-0.01,0.06,A
268,28,62,57,42,-1.85,9.49,-1.24,-0.06,-0.04,0.03,A
268,28,62,56,42,-2.03,9.39,-1.09,-0.12,0.03,0.03,A
268,28,62,56,42,-1.96,9.49,-0.84,-0.07,-0.03,0.04,A
268,29,62,56,42,-1.93,9.35,-1.31,-0.05,0.01,0.03,A
268,28,62,56,42,-2.01,9.34,-1.39,-0.11,0.02,-0.01,A
268,29,62,56,42,-2.01,9.45,-0.84,-0.11,0,0.02,A
268,29,62,57,42,-1.86,9.56,-1.15,-0.07,-0.03,0,A
268,28,62,57,42,-1.99,9.42,-1.28,-0.07,0.01,0.02,A
268,29,62,56,42,-1.91,9.45,-1.34,-0.09,-0.23,0.07,A
268,29,62,56,42,-2.07,9.41,-0.94,-0.1,0.05,0.05,A
268,29,62,56,42,-1.88,9.41,-1.35,-0.1,-0.14,0.02,A
268,29,62,57,42,-1.87,9.43,-1.13,-0.12,-0.05,0.03,A
268,28,62,57,42,-1.79,9.48,-1.18,-0.1,0.03,0.02,A
268,28,62,57,42,-1.94,9.42,-1.18,-0.1,0,0.02,A
268,29,62,57,42,-1.78,9.53,-1.27,-0.08,-0.04,-0.01,A
268,29,62,57,42,-1.97,9.34,-1.06,-0.11,0.05,-0.01,A
268,28,62,57,42,-1.88,9.41,-1.3,-0.08,-0.03,-0.02,A
268,28,62,57,42,-2.01,9.39,-1.24,-0.1,0.01,0,A
268,28,62,57,42,-1.97,9.45,-1.26,-0.08,-0.01,-0.02,A
268,29,62,57,42,-1.99,9.41,-1.28,-0.09,-0.04,-0.02,A
268,28,62,57,42,-2.18,9.39,-0.99,-0.08,-0.03,0.01,A
268,29,62,57,42,-2.1,9.4,-1.13,-0.06,0.03,0.01,A
268,29,62,57,42,-2.14,9.42,-1.58,-0.06,-0.05,0.02,A
268,28,62,57,42,-2.03,9.49,-1.58,-0.12,0.06,0.02,A
268,28,62,57,42,-1.96,9.37,-1.14,-0.14,0.03,0,A
268,29,62,57,42,-1.92,9.39,-1.16,-0.09,-0.07,0.01,A
268,29,62,57,42,-2,9.52,-1.35,-0.1,-0.06,0.02,A
268,29,62,56,42,-2.07,9.42,-1.28,-0.12,0.01,0.01,A
268,29,62,57,42,-2.12,9.43,-1.36,-0.11,0.03,0.03,A
268,28,62,57,42,-2.02,9.43,-1.15,-0.11,-0.02,0.01,A
268,29,62,57,42,-2.19,9.33,-1.36,-0.07,-0.01,0.01,A
268,29,62,57,42,-1.99,9.37,-1.41,-0.1,0,0.01,A
267,29,62,57,42,-1.95,9.43,-1.3,-0.14,-0.06,0.01,A
267,29,62,57,42,-1.93,9.42,-1.21,-0.1,-0.03,0.01,A
268,28,62,57,42,-1.92,9.49,-1.35,-0.11,-0.02,-0.01,A
268,29,62,57,42,-2.04,9.36,-1.17,-0.13,0.04,-0.02,A
268,28,62,57,42,-2.25,9.32,-1.22,-0.13,-0.02,0.03,A
267,29,62,57,42,-2.01,9.45,-1.3,-0.11,0.02,0.02,A
268,28,62,57,42,-2.07,9.5,-1.44,-0.1,-0.01,0.03,A
267,29,62,57,42,-1.87,9.44,-1.24,-0.11,-0.01,0.01,A
267,29,62,57,42,-2.12,9.43,-1.24,-0.09,0.02,-0.03,A
267,29,62,57,42,-2.09,9.38,-1.28,-0.09,-0.05,-0.02,A
267,28,62,57,42,-2.18,9.37,-1.21,-0.1,0.04,0.01,A
267,29,62,57,42,-2,9.46,-1.36,-0.09,0.01,0.01,A
267,29,62,57,42,-1.98,9.39,-1.43,-0.11,-0.07,-0.01,A
267,28,62,57,42,-2.27,9.31,-1.23,-0.13,0.02,0,A
267,29,62,57,42,-2.13,9.42,-1.21,-0.11,-0.08,0.04,A
267,29,62,57,42,-1.94,9.52,-1.15,-0.11,0,0.03,A
267,29,62,57,42,-2,9.43,-1.31,-0.08,-0.02,-0.02,A
267,29,62,57,42,-2.13,9.33,-1.37,-0.11,-0.06,0.01,A
267,29,62,57,42,-1.97,9.46,-1.27,-0.13,-0.01,0.04,A
267,28,62,57,42,-1.88,9.45,-1.31,-0.12,0.02,0.01,A
267,29,62,57,42,-2.05,9.46,-1.07,-0.1,-0.01,0,A
267,29,62,57,42,-2,9.4,-1.41,-0.09,0.02,0.01,A
267,29,62,57,42,-2.26,9.28,-1.42,-0.12,0.05,-0.01,A
267,29,62,57,42,-2.19,9.43,-1.27,-0.11,-0.03,0.02,A
267,29,62,57,42,-2.03,9.42,-1.32,-0.09,-0.01,0.01,A
267,29,62,57,42,-2.05,9.41,-1.28,-0.1,-0.01,0.02,A
267,29,63,57,42,-2.18,9.37,-1.35,-0.11,0.01,0.01,A
267,29,62,57,43,-2.01,9.39,-1.33,-0.09,-0.04,0,A
267,29,62,57,42,-2.15,9.4,-1.39,-0.11,-0.03,0.01,A
267,29,62,57,42,-2.32,9.35,-1.38,-0.09,0.08,0.01,A
268,29,62,57,42,-2.03,9.37,-1.56,-0.11,-0.05,0.02,A
267,29,62,57,42,-2.17,9.44,-1.37,-0.11,0.02,-0.01,A
267,29,62,57,42,-2.26,9.37,-1.33,-0.13,0.04,0.03,A
267,28,62,57,43,-1.99,9.45,-1.47,-0.12,-0.02,0.01,A
267,29,62,57,42,-2.17,9.48,-1.13,-0.11,-0.02,0.02,A
267,29,63,57,42,-2.21,9.34,-1.28,-0.1,0,0.02,A
267,29,62,57,42,-2.2,9.33,-1.38,-0.12,0.02,0.03,A
267,29,62,57,42,-2.04,9.2,-1.22,-0.12,-0.02,0.02,A
268,29,62,57,43,-2.04,9.39,-1.27,-0.09,-0.02,0.03,A
268,29,62,57,43,-1.91,9.49,-1.56,-0.11,-0.01,0.03,A
268,29,62,57,42,-2.17,9.33,-1.21,-0.14,0.01,0.02,A
268,28,62,57,43,-2.06,9.54,-1.28,-0.09,0,0.02,A
268,29,62,57,43,-1.9,9.31,-1.37,-0.12,-0.02,0,A
268,29,62,57,42,-2.2,9.51,-1.22,-0.11,-0.01,0,A
268,29,62,58,42,-2.13,9.39,-0.97,-0.14,0.06,0.03,A
268,29,62,57,43,-2.11,9.4,-1.28,-0.06,-0.04,-0.01,A
268,29,62,57,43,-2.24,9.38,-1.46,-0.09,0.04,0.01,A
268,29,63,57,42,-2.04,9.33,-1.32,-0.13,-0.04,0.03,A
268,29,62,57,43,-2.2,9.42,-1.34,-0.13,0.01,0.02,A
268,29,63,57,43,-2.04,9.41,-1.43,-0.14,0.02,0.01,A
268,29,63,57,43,-2.16,9.48,-1.39,-0.16,-0.04,0.03,A
268,29,62,57,43,-2,9.39,-1.18,-0.16,-0.02,0.03,A
268,29,62,57,43,-2.19,9.44,-1.03,-0.13,-0.03,0.02,A
268,29,62,57,43,-2.04,9.39,-1.13,-0.14,-0.04,0.02,A
268,29,62,57,42,-2.44,9.4,-1.46,-0.18,0.08,0.04,A
268,29,63,57,43,-1.96,9.5,-1.07,-0.18,-0.03,0.05,A
268,29,63,57,43,-2,9.4,-1.29,-0.18,0.02,0.04,A
268,29,63,57,42,-1.87,9.5,-0.93,-0.18,0.01,0.04,A
268,29,63,57,43,-1.85,9.46,-0.78,-0.14,0,0.01,A
268,29,63,57,43,-2.16,9.37,-1.12,-0.09,0.04,0,A
268,29,62,57,43,-2.08,9.4,-1.19,-0.13,0.05,0.01,A
268,29,63,57,43,-1.92,9.49,-0.9,-0.16,0.02,0,A
268,29,62,57,43,-1.99,9.55,-0.71,-0.08,-0.03,-0.01,A
268,29,62,57,42,-2.04,9.33,-1.05,-0.06,0.02,-0.01,A
268,28,62,57,43,-2.07,9.39,-1.07,-0.04,0.01,-0.01,A
268,29,63,57,43,-1.85,9.37,-1,-0.04,-0.04,-0.02,A
268,29,62,57,43,-2.13,9.4,-1.13,-0.07,-0.03,0.01,A
268,29,62,57,43,-1.99,9.5,-1.18,-0.08,-0.02,0.03,A
267,29,62,57,43,-2.02,9.39,-0.93,-0.08,0.02,-0.01,A
268,29,63,57,43,-2.1,9.38,-1.38,-0.04,0.01,0.01,A
267,29,63,57,43,-2.15,9.37,-1.55,-0.11,0.01,0,A
268,29,63,57,43,-2,9.46,-1.3,-0.14,0.03,-0.01,A
267,29,62,57,43,-1.95,9.43,-1.15,-0.16,0,-0.03,A
267,29,63,58,43,-2.26,9.5,-1.17,-0.14,0.03,-0.02,A
267,29,63,57,43,-2.32,9.42,-1.1,-0.15,0.04,-0.01,A
267,29,63,57,43,-2.26,9.38,-0.95,-0.11,0.02,0,A
267,29,62,57,43,-2.13,9.42,-1.17,-0.1,-0.07,0,A
267,29,63,57,43,-2.3,9.28,-1.41,-0.13,0.01,0.02,A
267,29,63,58,43,-2.18,9.34,-1.2,-0.16,-0.03,0.02,A
267,29,63,57,43,-2.04,9.49,-1.16,-0.16,-0.06,0.02,A
267,29,63,57,43,-2.2,9.42,-0.97,-0.18,0.01,0.03,A
267,29,63,57,43,-2.08,9.4,-1.15,-0.17,-0.06,0.01,A
267,29,63,57,43,-2.37,9.36,-0.99,-0.17,0.02,0.01,A
267,29,63,57,43,-2.03,9.35,-0.72,-0.17,-0.04,0.02,A
267,29,62,58,43,-2.05,9.4,-0.96,-0.15,-0.02,0.02,A
267,29,63,58,43,-2.09,9.45,-0.98,-0.13,0,0,A
267,29,63,57,43,-2.12,9.4,-0.73,-0.12,0.02,-0.02,A
267,29,63,58,43,-2.28,9.41,-0.61,-0.09,0.03,-0.02,A
267,29,63,58,43,-2.26,9.34,-0.86,-0.04,0.02,-0.01,A
267,29,63,58,43,-2.27,9.38,-0.91,-0.06,-0.02,-0.01,A
267,29,63,58,43,-2.19,9.44,-1.13,-0.04,0.03,-0.02,A
267,29,63,57,43,-2.31,9.42,-1.06,-0.07,0.03,-0.02,A
267,29,63,57,43,-2.25,9.32,-1.05,-0.05,0.05,-0.05,A
267,29,63,57,43,-2.62,9.24,-1.13,-0.04,0.09,-0.03,A
267,29,63,57,43,-2.1,9.37,-1.26,-0.08,-0.01,-0.02,A
267,29,63,57,43,-2.16,9.49,-1.38,-0.08,0.04,-0.03,A
267,29,63,58,43,-2.57,9.29,-0.98,-0.13,0.06,-0.04,A
267,29,63,58,43,-2.66,9.3,-1.02,-0.09,0.01,0.01,A
267,29,63,57,43,-2.37,9.36,-1.23,-0.09,0.02,0.02,A
267,29,63,58,43,-2.46,9.34,-1.14,-0.07,-0.08,0.01,A
267,29,63,58,43,-2.39,9.33,-1.31,-0.1,-0.04,0.01,A
267,29,63,58,43,-2.49,9.2,-1.02,-0.12,0.04,0.03,A
267,29,63,58,43,-2.2,9.49,-1.26,-0.11,-0.08,0.11,A
268,29,63,57,43,-2.17,9.41,-1.13,-0.07,0.02,-0.04,A
268,29,63,57,43,-2.62,9.27,-1.03,-0.05,0.05,-0.01,A
268,29,63,58,43,-2.43,9.24,-1.59,-0.07,-0.07,-0.01,A
268,29,63,57,43,-2.57,9.36,-1.14,-0.13,0.03,0.05,A
268,29,62,58,43,-2.39,9.4,-0.69,-0.06,0.01,0.05,A
268,29,63,57,43,-2.32,9.34,-1.25,-0.03,0.03,0.02,A
268,29,63,57,43,-2.7,9.15,-1.6,-0.05,0.07,0.04,A
268,29,63,57,43,-2.47,9.29,-1.47,-0.07,0.01,0.04,A
268,29,63,58,43,-2.24,9.34,-1.42,-0.12,0.02,0.02,A
268,29,63,57,43,-2.42,9.39,-1.2,-0.09,0.03,0.03,A
268,29,63,58,43,-2.5,9.34,-1.37,-0.07,0.01,0.03,A
268,29,63,58,43,-2.34,9.22,-1.55,-0.1,-0.02,0.03,A
268,29,63,58,43,-2.25,9.34,-1.45,-0.13,-0.06,0.03,A
268,29,63,57,43,-2.14,9.41,-1.13,-0.13,-0.04,0.03,A
268,29,63,58,43,-2.28,9.42,-1.3,-0.08,0,0.01,A
268,29,63,58,43,-2.31,9.33,-1.47,-0.11,-0.01,0.01,A
268,29,63,58,43,-2.46,9.35,-1.63,-0.16,0.05,0.06,A
268,29,63,58,43,-2.12,9.51,-1.38,-0.16,-0.02,-0.02,A
267,29,63,58,43,-2.28,9.38,-1.02,-0.13,-0.02,0.02,A
268,29,63,58,43,-2.23,9.35,-1.22,-0.09,0.02,0.02,A
268,29,63,58,43,-2.04,9.5,-0.94,-0.04,-0.11,0.02,A
268,29,63,58,43,-2.07,9.38,-1.46,-0.02,-0.21,0.01,A
267,29,63,57,43,-2.26,9.35,-1.77,-0.09,-0.16,-0.02,A
267,29,63,58,43,-2.4,9.21,-1.18,-0.18,-0.12,-0.02,A
268,29,63,57,43,-2.62,9.42,-1.01,-0.15,-0.06,0,A
267,29,63,58,43,-2.21,9.32,-1.13,-0.12,0.01,0,A
267,29,63,57,43,-1.98,9.39,-1.21,-0.09,0.07,-0.02,A
267,29,63,58,43,-2.23,9.55,-1.14,-0.01,-0.06,-0.03,A
267,29,63,58,43,-2.32,9.33,-1.44,0.02,-0.07,-0.07,A
267,29,63,58,43,-2.38,9.32,-1.72,-0.04,-0.03,-0.05,A
267,29,63,58,43,-2.72,9.19,-1.38,-0.06,0.04,-0.04,A
267,29,63,58,43,-2.62,9.23,-1.43,-0.05,-0.01,0,A
267,29,63,58,43,-2.65,9.2,-1.59,-0.08,0.07,0.03,A
267,29,63,58,43,-2.4,9.23,-1.68,-0.13,-0.01,0.04,A
267,29,63,58,43,-2.52,9.28,-1.35,-0.15,0.04,0.04,A
267,29,63,58,43,-2.49,9.24,-1.46,-0.11,0.03,0.02,A
267,29,63,58,43,-2.37,9.24,-1.1,-0.11,0.01,-0.01,A
267,29,63,58,43,-2.69,9.2,-1.5,-0.1,-0.05,0.02,A
266,29,63,58,44,-2.57,9.28,-1.58,-0.11,-0.02,0.03,A
266,29,63,58,43,-2.42,9.28,-1.46,-0.13,0.01,0.04,A
266,29,63,58,43,-2.29,9.41,-1.37,-0.14,-0.05,0.04,A
266,29,63,58,44,-2.35,9.44,-1.22,-0.13,-0.02,0.03,A
266,29,63,58,43,-2.44,9.33,-1.2,-0.09,0.03,-0.01,A
266,29,63,58,43,-2.51,9.18,-1.61,-0.13,-0.05,0.02,A
266,29,63,58,43,-2.6,9.25,-1.45,-0.17,-0.01,0.02,A
266,29,63,58,43,-2.41,9.33,-1.25,-0.16,0.11,0.03,A
266,29,63,58,43,-2.41,9.21,-1.43,-0.18,0.07,0.03,A
265,29,63,58,43,-2.36,9.15,-1.23,-0.21,0.11,0.05,A
265,29,63,57,43,-2.27,9.27,-0.86,-0.22,0.02,0.03,A
265,29,63,58,43,-2.38,9.52,-1.27,-0.15,0.03,0.04,A
265,29,63,58,43,-2.35,9.37,-1.12,-0.14,0.04,0.03,A
265,29,63,57,43,-2.35,9.35,-1.06,-0.12,0.01,0.04,A
264,29,62,58,43,-2.32,9.23,-1.29,-0.11,0.11,0.01,A
264,29,63,58,43,-2.33,9.28,-1.36,-0.16,0.05,0.06,A
264,29,63,58,43,-2.39,9.3,-0.7,-0.19,0.1,0.03,A
264,29,63,58,43,-2.22,9.49,-1,-0.08,-0.06,0.07,A
264,29,63,58,43,-2.33,9.26,-1.31,-0.1,0.05,0.03,A
264,29,63,58,43,-2.27,9.43,-1.24,-0.1,0.03,0.04,A
264,29,63,58,44,-2.14,9.53,-1.31,-0.08,-0.04,0.01,A
264,29,63,58,43,-2.2,9.21,-1.17,-0.14,0.07,0.09,A
264,29,63,58,43,-2.35,9.36,-1.11,-0.11,-0.06,0.03,A
264,29,63,58,44,-2.17,9.35,-0.84,-0.09,-0.03,0.05,A
264,29,63,58,44,-2.14,9.47,-1.26,-0.06,-0.02,0.02,A
264,29,63,57,43,-2.3,9.29,-1.35,-0.1,0.01,0.02,A
264,29,63,58,44,-2.34,9.32,-1.39,-0.11,0.08,0.01,A
264,29,63,58,44,-2.08,9.36,-1.28,-0.1,-0.13,0.02,A
264,30,63,58,43,-2.21,9.33,-1.32,-0.14,-0.13,0.02,A
264,30,63,58,44,-2.14,9.46,-1.04,-0.15,-0.06,0.02,A
264,31,63,58,44,-2.34,9.41,-1.36,-0.12,0.02,0.01,A
264,31,63,58,43,-2.12,9.52,-0.86,-0.12,0.02,0.02,A
264,31,63,58,44,-2.08,9.41,-0.86,-0.08,0.04,0,A
264,31,63,58,43,-2.21,9.24,-1.21,-0.05,0,-0.02,A
264,31,63,58,43,-2.56,9.23,-1.25,-0.1,-0.06,-0.01,A
264,31,63,58,43,-2.46,9.26,-1.44,-0.12,-0.01,0.05,A
263,30,63,58,44,-2.01,9.41,-1.36,-0.16,0.03,0.03,A
263,31,63,58,44,-2.16,9.36,-1.09,-0.16,-0.07,0.01,A
264,31,63,58,43,-2.35,9.39,-1.32,-0.15,0.01,0.04,A
263,30,63,58,43,-1.94,9.43,-1.13,-0.16,-0.05,0.03,A
264,31,63,58,43,-2.26,9.37,-1.06,-0.16,-0.02,0.02,A
263,31,63,58,43,-2.23,9.39,-0.87,-0.14,-0.01,0.01,A
263,31,63,58,44,-2,9.42,-0.78,-0.11,-0.09,0.02,A
263,31,63,58,43,-2.19,9.37,-1.07,-0.09,-0.01,0,A
263,31,63,58,43,-2.13,9.34,-1.19,-0.12,0.01,0,A
263,31,63,58,43,-2.12,9.39,-1.07,-0.15,-0.02,0.01,A
263,31,63,58,43,-2.41,9.29,-0.94,-0.15,0,0,A
263,31,63,58,43,-2.29,9.48,-0.62,-0.08,-0.03,0.03,A
263,31,63,58,44,-2.12,9.39,-1.09,-0.08,-0.02,0.04,A
263,31,63,58,43,-2.1,9.41,-1.12,-0.07,-0.02,0,A
263,31,63,58,43,-2.39,9.3,-1.14,-0.13,-0.01,0.02,A
263,31,63,58,43,-2.11,9.27,-1.22,-0.15,-0.03,0.02,A
263,31,63,58,44,-2.13,9.46,-0.78,-0.18,-0.01,0.01,A
263,31,63,58,43,-2.2,9.5,-0.86,-0.12,-0.01,0.01,A
263,31,63,58,43,-2.2,9.35,-0.91,-0.14,0.01,0.02,A
263,31,63,58,43,-2.08,9.39,-0.74,-0.14,-0.05,0.01,A
263,31,63,58,43,-2.29,9.37,-0.89,-0.13,0.03,0.01,A
263,31,63,58,43,-2.11,9.43,-0.99,-0.12,0.01,0.02,A
263,31,63,58,43,-2.28,9.32,-0.92,-0.12,-0.04,0.03,A
263,31,63,58,43,-2.08,9.42,-0.99,-0.13,-0.02,0.01,A
263,31,63,58,44,-2.28,9.33,-0.81,-0.17,0.04,0.01,A
263,31,63,58,43,-2.21,9.5,-0.67,-0.11,-0.02,0.02,A
263,31,64,58,43,-2.03,9.36,-0.83,-0.11,-0.02,0.01,A
263,31,63,58,43,-2.18,9.44,-0.86,-0.09,-0.03,0.02,A
263,31,63,58,44,-2.26,9.33,-0.94,-0.1,0.04,0,A
263,31,63,58,44,-2.24,9.31,-0.96,-0.12,0.02,0.02,A
263,31,63,58,44,-2.12,9.32,-0.9,-0.14,-0.02,0,A
263,31,63,58,43,-2.28,9.49,-0.6,-0.12,0.04,0.01,A
262,31,63,58,44,-2.22,9.43,-0.67,-0.08,0.02,0.04,A
262,31,63,58,43,-2.36,9.39,-0.98,-0.06,0,0.02,A
262,31,63,58,44,-2.11,9.39,-1.16,-0.09,-0.01,0.03,A
263,31,63,58,44,-2.34,9.38,-0.85,-0.14,0.03,0.03,A
262,31,64,58,44,-2.18,9.4,-0.74,-0.11,0.03,0.03,A
262,31,63,58,44,-2.03,9.54,-1,-0.08,0.03,0.04,A
262,31,63,58,44,-2.11,9.35,-0.95,-0.12,0.03,0.02,A
262,31,63,58,44,-1.75,9.54,-1.04,-0.08,-0.01,0,A
262,31,63,58,43,-2.28,9.29,-0.9,-0.14,0.07,-0.01,A
262,31,64,58,44,-2.48,9.32,-0.91,-0.14,0.1,0.04,A
262,31,63,58,44,-1.72,9.47,-0.67,-0.13,-0.03,0.04,A
262,31,63,58,43,-1.98,9.5,-0.6,-0.04,0.02,0,A
262,31,64,58,44,-2.2,9.32,-1.02,-0.05,0.03,-0.01,A
262,31,63,58,44,-2.11,9.43,-1.06,-0.07,-0.02,0,A
262,31,64,58,44,-2.19,9.42,-0.99,-0.09,-0.03,-0.01,A
261,31,64,58,44,-2.32,9.33,-0.91,-0.11,0.12,-0.01,A
262,31,63,58,43,-1.95,9.46,-1.06,-0.09,0.01,0.02,A
261,31,64,58,44,-2.02,9.4,-0.96,-0.1,-0.04,0,A
261,30,63,58,43,-2.23,9.41,-0.98,-0.08,-0.04,0.01,A
261,31,63,58,43,-2.22,9.39,-1.13,-0.1,0.01,0,A
261,31,63,58,44,-2.4,9.27,-1.1,-0.12,0,-0.01,A
261,31,64,58,43,-2.36,9.38,-0.87,-0.11,0,0.04,A
261,31,64,58,44,-1.95,9.38,-1.04,-0.11,-0.03,0.03,A
261,31,63,58,44,-2.08,9.43,-0.89,-0.13,0.03,0.01,A
261,31,63,58,44,-2.32,9.39,-0.89,-0.12,0,0.02,A
261,31,64,58,44,-2.22,9.35,-0.92,-0.09,0.04,0,A
260,31,64,58,44,-2.28,9.31,-0.93,-0.1,-0.05,0.02,A
260,31,64,58,44,-2.2,9.43,-0.99,-0.09,-0.04,0.02,A
260,31,63,58,44,-2.24,9.39,-0.97,-0.08,-0.01,0.02,A
260,31,64,58,44,-2.26,9.38,-1.19,-0.09,-0.02,0.03,A
260,31,63,58,43,-2.11,9.41,-1.05,-0.14,0.01,0.04,A
260,31,63,58,44,-2.15,9.41,-0.84,-0.12,-0.01,0.01,A
260,31,63,58,44,-2.2,9.39,-1.05,-0.09,-0.04,0.02,A
260,31,64,58,43,-2.17,9.38,-1,-0.12,0.04,0.01,A
260,31,63,58,43,-2.18,9.35,-0.96,-0.11,0.01,0.01,A
260,31,64,58,43,-2.19,9.38,-1.11,-0.11,-0.01,0.01,A
260,30,63,58,44,-2.26,9.36,-0.91,-0.11,0.02,0.01,A
259,30,64,58,44,-2.09,9.3,-1.1,-0.11,-0.01,0.02,A
259,30,64,58,44,-2.24,9.43,-1.16,-0.12,0.03,0.02,A
259,31,63,58,44,-2.27,9.32,-0.77,-0.12,-0.03,0.02,A
259,30,63,58,44,-2.07,9.39,-1.16,-0.1,-0.04,0.02,A
259,31,63,58,44,-2.09,9.45,-0.92,-0.12,0.01,0.01,A
259,31,63,58,44,-2.24,9.41,-0.95,-0.1,-0.07,0.02,A
259,31,63,58,44,-2.17,9.36,-0.98,-0.09,-0.01,0.02,A
259,30,63,58,44,-2.15,9.31,-1.01,-0.13,-0.02,0.03,A
259,31,64,58,44,-2.11,9.46,-0.81,-0.11,-0.05,0.03,A
259,31,64,58,44,-2.04,9.38,-1.12,-0.1,-0.01,0.02,A
259,31,63,58,44,-2.27,9.3,-1.07,-0.14,0.02,0.01,A
259,31,63,58,44,-2.15,9.38,-0.86,-0.14,0,0.03,A
259,31,63,58,44,-2.03,9.51,-0.9,-0.1,0,0,A
259,31,63,58,43,-2.33,9.3,-0.92,-0.09,-0.01,0.02,A
259,30,63,58,44,-2.22,9.43,-0.98,-0.09,0,0.02,A
259,31,63,58,44,-1.99,9.39,-0.98,-0.11,-0.03,0.01,A
259,31,63,58,44,-2.13,9.41,-1.03,-0.11,-0.02,0.01,A
259,31,63,58,44,-2.23,9.31,-1.1,-0.11,-0.01,0,A
259,31,63,58,43,-2.22,9.38,-1.07,-0.14,-0.03,0.02,A
259,31,63,58,44,-2.09,9.47,-0.69,-0.14,0.02,0.02,A
259,31,63,58,44,-2.12,9.39,-0.81,-0.08,0.01,0.01,A
259,31,63,58,44,-1.97,9.39,-1.26,-0.09,-0.05,0,A
258,31,63,58,44,-2.28,9.35,-0.98,-0.11,0,0,A
259,31,64,58,44,-2.15,9.35,-0.98,-0.11,-0.03,0.02,A
259,30,64,58,44,-2.12,9.41,-0.85,-0.14,-0.01,0.01,A
258,31,64,58,44,-2.15,9.42,-0.86,-0.11,-0.02,0.02,A
259,31,64,58,44,-2.01,9.41,-0.95,-0.11,-0.04,0.03,A
258,31,64,58,44,-2.05,9.46,-0.98,-0.1,-0.04,0.02,A
258,31,64,58,44,-1.95,9.4,-0.86,-0.12,-0.06,0,A
258,31,63,58,44,-2.11,9.37,-1.13,-0.12,-0.06,-0.01,A
258,31,63,58,43,-2.3,9.35,-0.89,-0.15,-0.01,0.01,A
258,31,63,58,44,-2.36,9.37,-0.53,-0.08,0.02,0.02,A
258,31,63,58,44,-2.17,9.41,-0.98,-0.06,-0.04,0.05,A
258,31,63,58,44,-2.19,9.28,-1.34,-0.11,-0.01,0.05,A
258,31,63,59,44,-2.1,9.39,-1.06,-0.15,-0.05,0.04,A
258,31,64,58,44,-1.98,9.35,-0.82,-0.11,-0.01,0.06,A
258,31,64,58,44,-2.11,9.41,-0.65,-0.11,0,0.04,A
258,31,63,58,44,-2.13,9.37,-1.06,-0.11,-0.04,0.02,A
258,31,64,58,44,-2.21,9.39,-1.06,-0.13,-0.01,0.03,A
258,31,64,58,44,-2.09,9.37,-0.93,-0.15,-0.01,0.03,A
258,31,64,58,44,-2.06,9.4,-0.78,-0.16,0,0.02,A
258,31,64,58,44,-2.08,9.39,-0.64,-0.12,-0.01,0.01,A
258,31,63,58,44,-2.08,9.45,-0.89,-0.11,-0.03,0.03,A
258,31,64,58,44,-1.96,9.43,-0.84,-0.13,0.02,0.02,A
258,30,64,58,44,-2.14,9.42,-0.75,-0.12,0.01,0.02,A
258,31,64,58,44,-2.03,9.4,-0.87,-0.13,0.02,0.02,A
258,31,64,58,44,-2.04,9.38,-0.67,-0.14,-0.02,0.02,A
258,31,64,58,44,-2,9.39,-0.69,-0.11,-0.06,0.01,A
258,31,64,58,44,-2.1,9.44,-0.72,-0.12,0.01,0.03,A
258,31,64,58,44,-2.1,9.43,-0.71,-0.1,0.04,0.01,A
258,31,64,58,44,-2.01,9.42,-0.86,-0.11,0,0.01,A
258,31,63,58,44,-2.1,9.38,-0.7,-0.11,-0.02,0.01,A
258,30,64,58,44,-2.07,9.36,-0.83,-0.1,-0.04,0.02,A
258,31,63,58,44,-2.09,9.49,-0.9,-0.08,-0.01,0.02,A
258,30,63,58,44,-2.04,9.34,-0.79,-0.14,0.01,0.02,A
258,31,64,58,44,-2.01,9.46,-0.84,-0.11,-0.02,0.03,A
258,31,64,58,44,-2.04,9.46,-0.78,-0.12,0.02,0.02,A
258,31,64,58,44,-1.96,9.44,-0.84,-0.11,-0.06,0.02,A
258,31,64,58,44,-2.06,9.42,-0.8,-0.1,0.04,0.01,A
258,30,63,58,44,-2.02,9.39,-0.86,-0.11,-0.03,0.01,A
258,31,63,58,44,-2.04,9.48,-0.73,-0.1,-0.02,0.01,A
258,31,63,58,44,-2.07,9.45,-0.79,-0.08,0,0.01,A
258,30,64,58,44,-2.03,9.41,-0.83,-0.1,0.01,0,A
258,31,63,58,44,-2.02,9.5,-0.79,-0.1,-0.03,0.01,A
258,30,63,58,44,-1.97,9.44,-0.91,-0.1,-0.02,0,A
258,31,64,58,44,-2.17,9.43,-0.89,-0.13,0,0,A
258,31,64,58,44,-2.13,9.43,-0.62,-0.11,-0.01,0.01,A
258,31,64,58,44,-2.04,9.45,-0.89,-0.09,-0.04,0.01,A
258,31,64,58,44,-2.07,9.46,-0.86,-0.11,0.01,0.02,A
258,30,63,58,44,-2.09,9.39,-0.86,-0.14,-0.01,0.01,A
258,31,64,58,44,-2.06,9.44,-0.74,-0.13,-0.03,0.03,A
258,31,64,58,44,-2,9.49,-0.75,-0.11,0,0.02,A
258,31,64,58,44,-1.83,9.41,-0.88,-0.13,-0.01,0.01,A
258,31,64,58,44,-2.23,9.43,-0.57,-0.12,-0.01,0.02,A
258,31,64,58,44,-1.86,9.45,-0.8,-0.08,0,0,A
258,31,64,58,44,-1.93,9.4,-0.75,-0.1,-0.02,0.01,A
258,31,64,58,44,-2.25,9.44,-0.61,-0.09,-0.05,0,A
258,31,64,58,44,-2.22,9.34,-0.82,-0.08,0.04,0.03,A
258,31,64,58,44,-1.71,9.51,-0.83,-0.08,0.05,-0.01,A
258,31,63,58,44,-1.92,9.43,-0.59,-0.08,-0.09,0.03,A
258,31,64,58,44,-2.11,9.38,-0.73,-0.08,-0.05,0.02,A
258,31,63,58,44,-2.04,9.43,-1.07,-0.06,-0.04,0.02,A
258,31,64,58,44,-2.08,9.46,-0.95,-0.09,0.04,0.02,A
258,31,63,58,44,-1.96,9.45,-0.86,-0.09,-0.06,0.02,A
258,31,64,58,44,-1.8,9.52,-0.66,-0.09,0.01,0,A
258,31,64,58,44,-1.43,9.51,-0.99,-0.06,0,-0.06,A
259,31,64,59,44,-2.03,9.5,-0.71,-0.02,-0.01,-0.11,A
259,31,64,58,44,-2.4,9.4,-1.13,0.04,-0.05,-0.07,A
259,31,64,58,44,-2.41,9.27,-1.5,-0.02,0.01,-0.02,A
259,31,64,58,44,-2.46,9.21,-1.59,-0.09,-0.02,0,A
259,31,64,58,44,-2.11,9.34,-1.21,-0.17,-0.01,0,A
259,31,64,58,44,-2.02,9.43,-1.01,-0.18,-0.02,-0.02,A
259,31,63,58,44,-2.35,9.44,-0.72,-0.16,0.05,-0.09,A
259,31,64,58,44,-2.56,9.34,-0.84,-0.08,-0.07,-0.04,A
259,31,63,58,44,-2.55,9.31,-0.89,-0.07,-0.02,0,A
259,31,64,58,44,-2.33,9.27,-0.8,-0.06,-0.04,0.05,A
260,31,63,58,44,-2.21,9.35,-1.35,-0.01,-0.06,0,A
260,31,64,58,44,-2.19,9.35,-1.19,-0.05,-0.03,0.01,A
261,31,64,58,44,-2.16,9.18,-1.16,-0.1,-0.03,0.03,A
263,31,64,58,44,-2.17,9.6,-1.36,-0.07,0.01,-0.07,A
263,31,63,59,44,-2.38,9.27,-0.87,-0.12,-0.06,-0.01,A
264,31,64,58,44,-2.8,9.25,-1.55,-0.03,-0.03,-0.13,A
264,31,64,58,44,-2.87,9.22,-1.22,-0.07,0,0,A
264,31,64,58,44,-2.58,9.29,-1.25,-0.08,0.05,0.04,A
264,31,64,58,44,-2.18,9.32,-1.19,-0.09,0.02,0.02,A
264,31,64,59,44,-2.35,9.36,-1.28,-0.04,0,-0.02,A
264,31,64,58,44,-2.39,9.29,-1.36,-0.05,-0.02,-0.03,A
264,31,64,58,44,-2.57,9.42,-1.35,-0.05,-0.02,-0.02,A
264,31,64,58,44,-2.73,9.33,-1.49,-0.06,0,-0.02,A
264,31,64,58,44,-2.54,9.26,-1.27,-0.06,-0.02,-0.01,A
264,31,64,58,44,-2.54,9.19,-1.43,-0.04,-0.05,0.02,A
263,31,63,59,44,-2.5,9.28,-1.54,-0.02,-0.01,-0.01,A
264,31,64,59,44,-2.6,9.2,-1.55,-0.08,0,0,A
263,31,64,58,44,-2.62,9.26,-1.37,-0.07,-0.02,0.01,A
263,31,64,58,44,-2.59,9.17,-1.7,-0.03,0.01,-0.02,A
263,31,64,59,44,-2.5,9.3,-1.76,-0.09,0.02,0,A
263,31,64,59,44,-2.61,9.22,-1.62,-0.12,-0.01,0.02,A
263,30,64,59,44,-2.55,9.22,-1.47,-0.15,-0.03,0,A
262,30,64,58,44,-2.59,9.24,-1.33,-0.07,-0.05,-0.04,A
262,29,64,58,44,-2.93,9.2,-1.8,-0.11,0.01,0.03,A
262,29,64,58,44,-2.73,9.2,-1.79,-0.12,0.07,0.03,A
262,29,64,58,44,-2.45,9.28,-1.46,-0.17,0.01,0.04,A
261,31,64,59,45,-2.52,9.24,-1.36,-0.15,-0.05,0.03,A
261,31,64,58,44,-2.45,9.28,-1.38,-0.11,-0.06,0.04,A
261,31,64,59,44,-2.49,9.29,-1.57,-0.12,-0.04,0.02,A
261,31,64,58,44,-2.65,9.21,-1.42,-0.12,-0.04,0.03,A
261,31,64,58,44,-2.61,9.28,-1.53,-0.12,-0.02,0.02,A
261,31,64,58,44,-2.53,9.26,-1.51,-0.13,0.01,0.03,A
261,31,64,59,44,-2.47,9.25,-1.39,-0.14,-0.03,0.03,A
261,31,64,58,44,-2.55,9.27,-1.47,-0.12,-0.02,0.03,A
261,31,64,59,44,-2.68,9.27,-1.51,-0.12,0.03,0.02,A
261,31,64,58,44,-2.72,9.21,-1.35,-0.14,0.06,0.01,A
261,31,64,59,44,-2.49,9.28,-1.3,-0.11,-0.04,0.04,A
261,31,64,58,44,-2.43,9.25,-1.48,-0.09,0,0.01,A
261,31,64,58,44,-2.62,9.19,-1.62,-0.1,0.02,0.01,A
261,31,64,59,44,-2.41,9.26,-1.49,-0.11,-0.06,0.02,A
261,31,64,59,44,-2.68,9.22,-1.41,-0.1,-0.02,0.02,A
260,31,64,58,44,-2.56,9.34,-1.53,-0.1,-0.01,0.02,A
260,31,64,59,44,-2.44,9.28,-1.64,-0.11,0.03,0.01,A
261,31,64,59,44,-2.53,9.27,-1.44,-0.14,0,0.02,A
260,31,64,58,44,-2.63,9.17,-1.43,-0.16,-0.01,0.03,A
260,31,64,58,44,-2.74,9.28,-1.26,-0.12,0.03,0.04,A
260,30,64,58,44,-2.56,9.23,-1.51,-0.11,-0.01,0.08,A
260,31,64,58,44,-2.36,9.32,-1.66,-0.15,0,0.05,A
260,31,64,59,44,-2.27,9.34,-1.18,-0.15,0.02,0.02,A
260,31,64,58,44,-2.33,9.36,-1.24,-0.1,-0.01,-0.01,A
260,31,64,58,44,-2.61,9.28,-1.32,-0.1,0.05,0,A
260,31,64,59,44,-2.78,9.11,-1.6,-0.13,0.09,0,A
260,31,64,58,44,-2.49,9.34,-1.34,-0.18,-0.01,0.03,A
260,31,64,58,44,-2.5,9.2,-1.61,-0.18,0.05,0.04,A
260,31,64,59,44,-2.35,9.38,-1.32,-0.23,-0.03,0.03,A
259,31,64,59,44,-2.23,9.39,-0.38,-0.28,0,0.04,A
259,31,64,59,44,-2.46,9.37,-0.93,-0.13,-0.03,0.02,A
260,31,64,59,44,-2.26,9.35,-1.15,-0.09,-0.06,0.02,A
259,31,64,59,44,-2.2,9.27,-1.59,-0.14,-0.06,-0.04,A
259,30,64,58,44,-2.91,9.2,-1.23,-0.2,0.02,-0.02,A
259,31,64,58,44,-2.65,9.48,-0.37,-0.16,-0.06,0.02,A
259,30,64,59,44,-2.4,9.32,-1.03,-0.04,0.05,0.04,A
259,30,64,59,44,-2.23,9.19,-1.75,-0.08,-0.02,0,A
259,30,64,58,44,-2.49,9.37,-1.12,-0.18,-0.03,0.03,A
259,30,64,59,44,-2.59,9.39,-0.49,-0.14,0.1,0.03,A
259,30,64,59,44,-2.46,9.36,-0.74,-0.03,0.04,-0.01,A
259,30,64,59,44,-2.46,9.29,-1.45,-0.04,-0.11,0.06,A
259,30,64,58,44,-2.35,9.2,-1.31,-0.1,0.04,0.02,A
259,31,64,59,44,-2.49,9.28,-1.25,-0.13,0.02,0.02,A
259,31,64,59,44,-2.4,9.22,-1.07,-0.14,-0.01,0.03,A
259,31,64,59,44,-2.34,9.41,-1.13,-0.12,-0.06,0.03,A
259,31,64,59,44,-2.32,9.34,-0.88,-0.09,0,0.01,A
259,30,64,58,44,-2.37,9.37,-1.16,-0.05,-0.06,0,A
259,31,64,58,44,-2.54,9.29,-1.14,-0.05,0.07,0,A
259,31,64,59,44,-2.5,9.31,-1.32,-0.04,0.01,0.01,A
259,30,64,59,44,-2.44,9.29,-1.37,-0.08,-0.01,0.01,A
259,31,64,59,44,-2.42,9.27,-1.44,-0.11,0.01,-0.01,A
260,31,64,59,44,-2.45,9.39,-1.24,-0.1,-0.05,0.01,A
259,31,64,59,44,-2.63,9.03,-1.05,-0.14,0.05,0.01,A
259,30,64,59,44,-2.27,9.41,-1.08,-0.08,-0.02,0.04,A
259,30,64,59,44,-2.4,9.39,-1.23,-0.04,-0.02,0,A
259,30,64,59,44,-2.57,9.22,-1.41,-0.09,0.02,0.01,A
259,31,64,58,44,-2.56,9.31,-1.46,-0.11,0.06,0.02,A
259,31,64,58,45,-2.49,9.3,-1.1,-0.11,0.05,0.02,A
259,31,64,59,44,-2.41,9.41,-1.25,-0.09,-0.02,0.03,A
259,31,64,59,44,-2.43,9.3,-1.25,-0.08,0.02,0.01,A
259,31,64,59,44,-2.32,9.37,-1.47,-0.09,-0.01,0.01,A
259,31,64,59,44,-2.55,9.27,-1.4,-0.11,0.01,0.02,A
259,31,64,59,44,-2.43,9.33,-1.16,-0.13,-0.02,0.03,A
259,31,64,59,44,-2.37,9.32,-1.1,-0.11,-0.04,0.03,A
259,31,64,59,44,-2.49,9.28,-1.29,-0.07,0.01,0.01,A
260,31,64,58,44,-2.5,9.29,-1.43,-0.08,-0.02,0.03,A
259,31,64,59,45,-2.35,9.32,-1.39,-0.09,-0.01,0.01,A
259,31,64,59,44,-2.34,9.26,-1.44,-0.12,-0.03,0.04,A
259,30,64,59,44,-2.4,9.32,-1.31,-0.09,-0.03,0.03,A
259,31,64,59,44,-2.4,9.29,-1.32,-0.11,-0.01,0.02,A
259,31,64,59,44,-2.27,9.34,-1.34,-0.11,-0.02,0.01,A
259,31,64,59,44,-2.44,9.29,-1.47,-0.11,-0.01,0,A
259,30,64,58,45,-2.37,9.44,-1.36,-0.11,-0.06,0.03,A
259,31,64,58,44,-2.6,9.25,-1.18,-0.12,0.02,0,A
258,30,65,59,44,-2.4,9.34,-1.33,-0.09,-0.01,0.02,A
259,31,64,59,44,-2.36,9.26,-1.63,-0.11,0.01,0.02,A
259,31,64,59,44,-2.27,9.35,-1.24,-0.13,-0.02,0.04,A
259,31,64,59,44,-2.26,9.41,-1.17,-0.08,-0.06,0.05,A
259,31,64,59,44,-2.57,9.32,-1.13,-0.03,0.07,0.03,A
259,31,64,59,44,-2.38,9.36,-1.42,-0.05,0.03,0,A
259,30,64,59,44,-2.36,9.34,-1.55,-0.06,-0.01,0.01,A
259,31,64,59,44,-2.43,9.25,-1.36,-0.06,-0.05,0.01,A
259,31,64,58,44,-2.33,9.26,-1.62,-0.05,-0.03,0.03,A
259,30,64,59,45,-2.38,9.3,-1.61,-0.06,0.01,0.01,A
258,30,64,58,44,-2.35,9.29,-1.5,-0.1,0.07,0.01,A
258,30,64,59,44,-2.24,9.45,-1.18,-0.07,-0.03,0.02,A
259,31,64,59,44,-2.23,9.31,-1.42,0.02,-0.07,-0.01,A
259,31,64,59,45,-2.6,9.24,-1.96,-0.03,0.01,-0.01,A
259,31,64,59,44,-2.6,9.26,-1.77,-0.08,0.01,0.01,A
259,30,64,59,45,-2.36,9.33,-1.77,-0.11,0,0.04,A
258,30,64,59,44,-2.28,9.31,-1.62,-0.14,-0.02,0.03,A
258,31,64,59,44,-2.22,9.27,-1.42,-0.14,-0.05,0.04,A
258,31,64,59,44,-2.41,9.42,-1.46,-0.12,-0.01,0.06,A
259,31,64,58,44,-2.34,9.36,-1.71,-0.07,0.06,0,A
259,30,64,59,44,-2.5,9.28,-1.58,-0.11,0.08,0,A
259,31,64,59,44,-2.36,9.24,-1.81,-0.12,0,0.03,A
259,30,64,59,44,-2.45,9.27,-1.58,-0.15,0,0.02,A
259,31,64,58,45,-2.38,9.31,-1.55,-0.14,-0.05,0.03,A
259,31,64,59,44,-2.34,9.38,-1.58,-0.14,-0.04,0.04,A
259,31,64,59,45,-2.28,9.29,-1.53,-0.15,-0.02,0.03,A
259,31,64,59,45,-2.38,9.32,-1.49,-0.16,-0.01,0.03,A
259,31,64,59,44,-2.33,9.35,-1.42,-0.16,-0.02,0.04,A
259,31,64,59,44,-2.26,9.35,-1.23,-0.13,0,0.05,A
259,30,64,59,44,-2.23,9.32,-1.48,-0.13,-0.03,0.02,A
259,31,64,58,44,-2.19,9.37,-1.28,-0.16,-0.07,0.03,A
259,31,64,59,44,-2.33,9.37,-1.43,-0.13,-0.03,0.04,A
259,31,64,59,44,-2.21,9.41,-1.31,-0.14,-0.01,0.04,A
259,30,64,59,45,-2.22,9.34,-1.35,-0.15,0,0.02,A
259,31,64,59,45,-2.15,9.32,-1.31,-0.16,-0.03,0.02,A
259,31,64,58,44,-2.25,9.29,-1.29,-0.17,-0.05,0.01,A
259,31,64,59,44,-2.26,9.39,-1.29,-0.17,-0.06,0.03,A
259,31,64,59,44,-2.28,9.43,-1.22,-0.18,-0.04,0.02,A
259,31,64,59,45,-2.19,9.39,-1.04,-0.17,-0.02,0.03,A
259,31,64,59,45,-2.1,9.46,-1.01,-0.13,-0.02,0.02,A
259,31,64,59,44,-2.2,9.3,-1.3,-0.16,-0.01,0.01,A
259,31,64,58,44,-2.27,9.44,-0.88,-0.14,-0.01,0.03,A
259,31,64,59,44,-2.11,9.36,-0.94,-0.14,0.03,0.01,A
259,31,64,59,45,-2.24,9.38,-1.05,-0.11,-0.02,0.01,A
259,30,64,59,45,-2.14,9.39,-1.02,-0.11,-0.04,0.02,A
259,31,64,59,44,-2.23,9.43,-1.04,-0.11,-0.05,0.01,A
258,31,64,59,45,-2.28,9.35,-1.16,-0.1,0.02,0.01,A
259,31,64,59,44,-2.17,9.38,-1.12,-0.13,0,0.01,A
258,31,64,59,44,-2.27,9.45,-1.05,-0.12,0.01,0.02,A
259,31,64,59,45,-2.18,9.31,-1.11,-0.12,0,0.02,A
259,31,64,59,44,-2.14,9.37,-1.04,-0.13,-0.06,0.03,A
258,31,64,59,45,-2.15,9.36,-1.02,-0.14,-0.03,0.02,A
258,31,64,59,44,-2.31,9.38,-0.89,-0.14,0,0.02,A
258,31,64,59,44,-2.16,9.37,-0.94,-0.12,-0.02,0.02,A
258,31,64,59,45,-2.18,9.41,-1,-0.13,-0.01,0.01,A
259,31,64,59,44,-2.16,9.38,-0.93,-0.14,-0.04,0.02,A
258,31,64,58,45,-2.17,9.42,-0.85,-0.11,-0.01,0.01,A
259,31,64,59,44,-2.18,9.36,-1.04,-0.13,0.03,0.01,A
258,31,64,59,45,-2.23,9.34,-0.99,-0.12,-0.02,0,A
258,31,64,59,44,-2.29,9.4,-0.84,-0.13,0.01,0.02,A
258,31,64,59,45,-2.18,9.37,-0.83,-0.12,0.01,0.01,A
259,31,64,59,45,-2.15,9.4,-0.95,-0.11,-0.03,0.01,A
258,30,64,59,45,-2.39,9.36,-0.94,-0.11,0.06,-0.02,A
258,30,65,59,45,-2.27,9.41,-0.83,-0.09,0,0.02,A
258,29,64,59,45,-2.09,9.35,-0.97,-0.08,-0.06,0,A
258,31,64,59,44,-2.15,9.39,-0.9,-0.1,-0.03,0,A
258,31,64,59,44,-2.32,9.35,-1.18,-0.08,0.01,-0.03,A
258,31,64,58,44,-2.2,9.31,-1.05,-0.13,0.01,0,A
259,31,64,59,44,-2.28,9.4,-0.83,-0.14,-0.01,0.01,A
258,31,64,59,44,-2.21,9.39,-0.62,-0.12,-0.02,0.02,A
258,31,65,59,44,-2.26,9.42,-0.84,-0.08,0.01,0.01,A
258,31,64,59,45,-2.28,9.39,-1.12,-0.09,0.02,0.03,A
258,30,65,59,45,-2.08,9.43,-1.19,-0.1,-0.02,0.03,A
259,31,64,59,45,-2.13,9.4,-0.83,-0.13,0,0,A
259,31,64,59,44,-2.14,9.49,-0.84,-0.09,0.01,-0.01,A
259,31,64,59,45,-2.21,9.39,-1,-0.1,-0.02,0,A
258,31,64,59,44,-2.33,9.34,-1.06,-0.11,-0.04,0,A
258,31,64,59,45,-2.25,9.34,-1.01,-0.14,-0.02,0.02,A
258,31,64,59,44,-2.1,9.43,-0.8,-0.14,-0.06,0.04,A
258,31,64,59,44,-2.16,9.35,-0.9,-0.12,-0.05,0.02,A
258,31,64,59,44,-2.38,9.33,-0.9,-0.12,0.03,0.03,A
258,31,64,59,45,-2.32,9.35,-0.98,-0.11,0.01,0.01,A
258,31,64,59,45,-2.24,9.34,-1.09,-0.15,0.04,0.01,A
258,31,64,59,45,-2.15,9.38,-0.72,-0.1,-0.01,-0.07,A
258,31,64,59,44,-2.39,9.43,-0.65,-0.09,-0.03,0.03,A
258,31,64,59,45,-2.01,9.39,-0.97,-0.09,-0.01,0.04,A
258,31,64,59,45,-2.2,9.42,-0.9,-0.1,-0.01,0,A
258,31,64,59,44,-2.19,9.29,-0.94,-0.1,-0.02,0.01,A
258,31,64,59,45,-1.98,9.46,-0.84,-0.1,-0.12,0.01,A
258,31,64,59,44,-2.21,9.35,-0.86,-0.11,0,-0.01,A
258,30,64,59,45,-2.34,9.38,-0.88,-0.09,0.03,-0.01,A
258,31,64,58,45,-2.33,9.27,-0.85,-0.12,0.03,0.01,A
258,31,64,59,45,-2.21,9.39,-0.83,-0.1,-0.03,0.02,A
258,31,64,59,45,-2.26,9.39,-0.92,-0.09,-0.01,0.01,A
258,31,64,59,44,-2.3,9.29,-0.97,-0.11,0.01,0.03,A
258,31,64,59,44,-2.15,9.41,-1,-0.1,-0.02,0.03,A
258,29,64,59,45,-2.17,9.44,-1.02,-0.12,-0.02,0.02,A
258,31,65,59,45,-2.35,9.36,-0.91,-0.12,-0.02,0.03,A
258,31,64,59,45,-2.15,9.37,-0.9,-0.12,0,0.01,A
258,31,64,59,45,-2.1,9.44,-0.93,-0.1,-0.02,0,A
258,31,64,59,44,-2.33,9.37,-0.87,-0.12,0,0.02,A
258,31,65,59,44,-2.27,9.33,-0.85,-0.1,0.01,0.01,A
258,30,64,59,45,-2.23,9.44,-1.11,-0.1,0,0.03,A
258,31,64,59,45,-2.19,9.34,-0.95,-0.1,-0.04,0,A
258,31,64,59,45,-2.25,9.39,-0.89,-0.11,0.01,0.01,A
257,30,64,59,45,-2.21,9.47,-0.79,-0.1,0,0.01,A
258,31,64,58,45,-2.19,9.34,-0.97,-0.09,0,0.01,A
258,30,64,59,45,-2.25,9.28,-0.92,-0.11,-0.02,0.01,A
257,31,64,59,45,-2.36,9.4,-1.01,-0.1,-0.03,0.02,A
258,30,64,59,45,-2.27,9.44,-0.79,-0.11,0,0.02,A
258,30,64,59,44,-2.08,9.34,-0.92,-0.12,0,0.02,A
257,30,65,59,45,-2.04,9.42,-0.78,-0.1,-0.05,0.01,A
258,31,64,59,45,-2.07,9.44,-0.98,-0.08,-0.08,-0.02,A
258,31,64,59,45,-2.49,9.3,-1.07,-0.09,0,-0.01,A
258,31,64,59,44,-2.44,9.37,-0.94,-0.1,-0.05,0.04,A
258,31,64,59,45,-2.14,9.38,-0.92,-0.1,0.01,0.02,A
258,31,64,59,45,-2.28,9.35,-0.94,-0.11,0.03,0.02,A
258,30,64,59,45,-2.18,9.34,-0.98,-0.12,0,0,A
257,31,64,59,45,-2.39,9.39,-0.83,-0.11,-0.02,0,A
258,31,64,59,44,-2.3,9.31,-0.82,-0.12,0,0.01,A
257,31,64,59,44,-2.18,9.37,-0.7,-0.11,0,0,A
258,30,64,59,44,-2.34,9.38,-0.87,-0.08,-0.03,0,A
258,31,64,59,44,-2.26,9.37,-0.95,-0.08,-0.06,0.01,A
258,30,64,59,44,-2.3,9.34,-0.93,-0.09,0.02,0.01,A
258,30,64,59,45,-2.34,9.41,-1.06,-0.08,0.01,0.02,A
257,30,64,58,45,-2.26,9.36,-1.04,-0.12,0.04,0.03,A
258,31,64,59,45,-2.19,9.43,-0.8,-0.11,0.02,0.01,A
258,31,64,59,45,-2.27,9.41,-0.79,-0.08,0,0.02,A
258,31,64,59,45,-2.28,9.33,-0.88,-0.07,0,0.01,A
258,30,64,59,45,-2.28,9.38,-1.14,-0.07,0.01,0.01,A
258,31,64,59,45,-2.26,9.32,-1.14,-0.1,-0.02,0.01,A
258,31,64,59,45,-2.24,9.31,-1.21,-0.11,-0.01,0,A
258,30,64,59,45,-2.3,9.37,-1.04,-0.13,0.02,0.02,A
258,31,64,59,45,-2.29,9.34,-0.9,-0.11,0,0.03,A
258,30,64,59,45,-2.3,9.31,-1.02,-0.11,0.02,0.01,A
258,31,64,59,45,-2.3,9.41,-1.03,-0.11,0.03,0.01,A
257,30,64,59,45,-2.26,9.32,-1.08,-0.11,0.02,0.01,A
258,30,64,59,45,-2.36,9.33,-1.16,-0.13,-0.04,0.02,A
258,30,65,59,45,-2.26,9.32,-0.92,-0.14,-0.05,0.03,A
258,31,64,59,45,-2.19,9.4,-1.01,-0.12,0,0.02,A
258,30,64,59,45,-2.24,9.36,-0.82,-0.12,-0.04,0.02,A
258,31,64,59,45,-2.27,9.31,-1.15,-0.13,-0.04,0.01,A
258,31,65,59,45,-2.28,9.44,-0.77,-0.11,-0.06,0.03,A
258,30,64,59,45,-2.2,9.35,-1.01,-0.11,-0.02,0,A
258,31,64,59,44,-2.42,9.35,-0.85,-0.12,0.02,0.02,A
258,31,64,59,45,-2.22,9.39,-0.75,-0.12,-0.02,0.03,A
258,31,64,59,45,-2.04,9.35,-1.05,-0.09,-0.06,0.01,A
258,30,64,59,45,-2.4,9.33,-0.91,-0.11,-0.04,0.02,A
258,30,64,59,45,-2.33,9.39,-0.79,-0.13,0.01,0.02,A
258,31,64,59,44,-2.07,9.44,-0.92,-0.09,-0.01,0.02,A
258,31,64,59,45,-2.22,9.38,-0.94,-0.1,0.02,0,A
258,31,64,59,45,-2.34,9.33,-0.85,-0.1,-0.02,0.01,A
258,31,64,59,45,-2.23,9.44,-1.07,-0.1,-0.02,0.02,A
258,31,64,59,45,-2.22,9.42,-0.94,-0.1,0.01,0.01,A
258,31,64,59,45,-2.3,9.36,-0.91,-0.1,-0.02,0.03,A
257,31,64,59,44,-2.31,9.35,-0.9,-0.11,0.04,0.01,A
258,31,64,59,45,-2.29,9.37,-1.02,-0.1,0.04,0.01,A
258,31,64,59,45,-2.33,9.34,-0.92,-0.11,0.01,0.02,A
258,31,64,59,45,-2.23,9.36,-1.02,-0.11,-0.06,0.03,A
258,30,64,59,45,-2.14,9.35,-0.88,-0.11,-0.08,0.02,A
258,31,64,59,45,-2.3,9.4,-1.06,-0.12,-0.07,0.03,A
258,30,64,59,45,-2.29,9.36,-0.91,-0.13,0.05,0.01,A
258,31,64,59,45,-2.12,9.35,-0.77,-0.12,0.03,0.01,A
258,30,64,59,45,-2.2,9.35,-0.77,-0.08,-0.01,0.01,A
258,30,64,59,45,-2.46,9.3,-0.97,-0.1,0.03,0.02,A
258,31,64,59,45,-2.39,9.31,-0.8,-0.09,0,0.04,A
258,30,65,59,45,-2.12,9.41,-1.13,-0.09,-0.01,0.03,A
258,31,65,59,44,-2.24,9.35,-0.91,-0.11,0.04,-0.01,A
258,31,65,59,44,-2.14,9.34,-0.74,-0.1,-0.03,0.01,A
258,31,64,59,45,-2.35,9.39,-1.24,-0.08,-0.05,0.01,A
258,31,64,59,44,-2.36,9.28,-1.02,-0.12,0.01,0.03,A
258,30,64,59,44,-2.3,9.34,-0.96,-0.11,-0.01,0.02,A
258,31,64,59,45,-2.23,9.36,-0.86,-0.11,0.02,0.01,A
258,31,65,59,45,-2.24,9.44,-0.96,-0.11,0.03,0.01,A
258,31,64,59,45,-2.32,9.38,-0.83,-0.11,-0.02,0.02,A
258,30,64,59,45,-2.25,9.36,-1.04,-0.09,0,0.02,A
258,31,64,59,45,-2.33,9.29,-1,-0.11,0.04,0,A
258,30,64,59,45,-2.29,9.36,-1,-0.11,-0.01,0.02,A
258,31,64,59,45,-2,9.42,-0.99,-0.11,-0.05,0.01,A
258,31,64,59,44,-2.31,9.36,-0.91,-0.13,-0.04,0.01,A
258,31,64,59,45,-2.49,9.29,-0.96,-0.12,0,0.02,A
258,30,64,59,45,-2.27,9.35,-1,-0.14,0.01,0.03,A
258,31,64,59,45,-2.29,9.36,-0.91,-0.14,0,0.03,A
257,31,64,59,45,-2.28,9.34,-0.68,-0.14,-0.02,0.03,A
257,31,64,59,45,-2.2,9.43,-1.02,-0.09,0.01,0.02,A
258,31,64,59,45,-2.16,9.31,-0.87,-0.11,0.02,0.01,A
257,31,65,59,45,-2.38,9.36,-0.97,-0.11,0.03,0.02,A
258,30,64,59,45,-2.11,9.45,-0.8,-0.12,-0.01,0.01,A
258,30,65,59,45,-2.04,9.44,-0.93,-0.08,-0.06,0,A
257,31,64,59,45,-2.41,9.39,-1.17,-0.09,0,0,A
257,30,65,59,45,-2.45,9.34,-0.89,-0.13,0.04,0.02,A
257,31,64,59,45,-2.23,9.38,-0.85,-0.13,0.02,0.04,A
257,30,64,59,45,-2.17,9.39,-0.99,-0.11,-0.06,0.02,A
257,31,64,59,45,-2.28,9.44,-0.79,-0.1,-0.01,0.04,A
257,31,64,59,45,-2.28,9.3,-1.16,-0.1,-0.01,0.04,A
257,30,65,59,45,-2.24,9.36,-0.98,-0.16,0.02,0.02,A
258,30,64,59,45,-2.33,9.43,-0.82,-0.14,0.02,0.03,A
257,30,65,59,45,-2.03,9.49,-0.4,-0.11,-0.04,0.01,A
258,30,64,59,45,-2.14,9.47,-0.9,-0.05,-0.02,-0.01,A
257,31,64,59,45,-2.61,9.23,-1.11,-0.09,0.06,0,A
257,31,65,59,45,-2.65,9.24,-1.07,-0.1,0,0.08,A
257,30,64,59,45,-1.88,9.49,-0.96,-0.13,0,0.05,A
257,31,64,59,45,-2.11,9.26,-1.19,-0.19,0,0.05,A
257,31,65,59,45,-2.35,9.43,-0.81,-0.2,-0.01,0.06,A
257,30,65,59,45,-2.26,9.39,-0.63,-0.18,0.06,0.05,A
257,30,65,59,45,-2,9.39,-0.9,-0.19,0.03,0.05,A
257,30,64,59,45,-2.01,9.41,-0.4,-0.2,0.03,-0.01,A
257,31,64,59,45,-2.31,9.47,-0.53,-0.13,0.04,0.01,A
257,31,65,59,45,-2.04,9.42,-0.34,-0.11,0,0.01,A
257,30,65,59,45,-2.19,9.49,-0.56,-0.08,0.06,0.01,A
257,31,65,59,45,-1.94,9.39,-0.93,-0.06,-0.04,-0.01,A
257,30,65,59,45,-2.35,9.39,-0.81,-0.07,0.01,-0.03,A
257,31,64,59,45,-2.22,9.31,-0.92,-0.06,0.03,-0.02,A
256,31,65,59,45,-2.25,9.39,-0.8,-0.11,0,-0.01,A
256,30,64,59,45,-2.3,9.37,-0.92,-0.11,-0.02,0.03,A
256,31,64,59,45,-2.22,9.41,-0.78,-0.09,0.03,0,A
256,31,64,59,45,-2.16,9.33,-0.8,-0.1,0.02,0.01,A
256,31,64,59,45,-2.22,9.41,-0.72,-0.06,-0.01,0,A
256,31,65,59,45,-2.41,9.27,-1.25,-0.1,0.01,0.01,A
256,31,65,59,45,-2.18,9.27,-1.02,-0.17,0,0.04,A
256,30,65,59,45,-2.21,9.39,-0.76,-0.2,-0.03,0.04,A
256,30,65,59,45,-1.98,9.48,-0.64,-0.18,0.03,0.04,A
256,30,64,59,45,-2.2,9.35,-0.5,-0.14,0.03,0,A
256,30,64,59,45,-2.27,9.42,-0.85,-0.1,-0.03,0.03,A
255,30,65,59,45,-2.08,9.33,-0.91,-0.16,-0.03,0.01,A
255,30,64,59,45,-2.04,9.47,-0.57,-0.18,0,0.02,A
255,30,65,59,45,-2.02,9.49,-0.42,-0.13,-0.07,0.02,A
255,30,65,59,45,-2,9.38,-0.57,-0.11,-0.04,-0.01,A
256,31,64,59,45,-2.42,9.31,-0.79,-0.14,0.02,-0.02,A
256,31,64,59,45,-2.38,9.35,-0.44,-0.13,-0.01,0.02,A
255,30,64,59,45,-2.04,9.49,-0.4,-0.09,-0.07,0.01,A
255,31,65,59,45,-2.37,9.39,-0.46,-0.04,0,0.01,A
255,31,65,59,44,-2.38,9.2,-1.06,-0.08,-0.07,0.04,A
255,30,64,59,45,-1.84,9.33,-0.81,-0.15,0.03,0.04,A
255,30,65,59,45,-1.84,9.56,-0.29,-0.11,0.03,-0.03,A
255,30,65,59,45,-2.28,9.48,-0.08,-0.03,0,-0.05,A
255,30,65,59,45,-2.28,9.36,-0.52,0.06,0,-0.04,A
255,30,64,59,45,-2.4,9.35,-1.09,0.08,-0.02,-0.04,A
254,30,65,59,45,-2.34,9.25,-1.24,-0.02,-0.04,0,A
254,30,64,59,45,-2.23,9.24,-1.47,-0.12,-0.02,0.02,A
254,31,65,59,45,-2.24,9.39,-1.02,-0.17,0.04,-0.01,A
254,31,65,59,45,-2.41,9.33,-0.76,-0.18,0.04,0,A
254,30,64,59,45,-2.07,9.43,-0.4,-0.13,0,-0.01,A
254,30,65,59,45,-2.41,9.48,-0.92,-0.09,0.01,-0.01,A
254,31,65,59,45,-2.49,9.25,-0.9,-0.09,0.11,-0.04,A
254,31,65,59,45,-2.42,9.32,-0.64,-0.11,0.01,-0.01,A
254,30,64,59,45,-2.36,9.41,-0.99,-0.07,0.03,0,A
254,31,65,59,45,-2.43,9.23,-1.05,-0.1,0.02,-0.01,A
254,30,64,59,45,-2.57,9.25,-0.95,-0.14,-0.01,0.03,A
254,31,65,59,45,-2.44,9.28,-0.87,-0.17,0.05,0.05,A
254,30,64,59,45,-2.15,9.38,-0.73,-0.16,0.05,0.03,A
254,30,64,59,45,-2.35,9.42,-0.64,-0.12,0.03,0.03,A
254,30,65,59,45,-2.39,9.26,-0.81,-0.09,0.01,0.02,A
254,31,64,59,45,-2.38,9.32,-0.86,-0.09,0,0.02,A
254,31,64,59,45,-2.15,9.36,-0.97,-0.11,-0.02,0.01,A
254,30,65,59,45,-2.54,9.25,-0.69,-0.12,0.01,0.01,A
255,30,65,59,45,-2.36,9.39,-0.81,-0.09,0,0.03,A
254,31,65,59,45,-2.24,9.34,-1.09,-0.11,0.02,0,A
255,31,64,59,45,-2.6,9.28,-0.79,-0.11,0.08,0,A
254,31,64,59,45,-2.15,9.38,-0.79,-0.11,-0.02,0.02,A
254,30,64,59,45,-2.21,9.39,-0.78,-0.1,0.02,0.01,A
254,30,65,59,45,-2.4,9.29,-0.87,-0.07,-0.03,0,A
254,30,64,59,45,-2.48,9.25,-1.16,-0.07,-0.07,0,A
254,30,65,59,45,-2.37,9.19,-1.13,-0.13,-0.02,0.03,A
254,31,65,59,45,-2.35,9.32,-0.77,-0.16,-0.1,0.04,A
255,31,65,59,45,-2.38,9.3,-1.02,-0.18,-0.06,0.04,A
254,29,64,59,45,-2.56,9.25,-0.99,-0.21,0.05,0.03,A
254,30,64,59,45,-2.32,9.3,-0.51,-0.24,-0.01,0.05,A
254,31,65,59,45,-2.15,9.44,-0.68,-0.17,0.01,0.02,A
254,31,64,59,45,-2.29,9.42,-0.38,-0.16,0.02,0,A
254,31,65,59,45,-2.51,9.28,-0.62,-0.14,0.04,0.03,A
254,31,65,59,45,-2.3,9.37,-0.46,-0.13,0.04,0.03,A
254,30,65,59,45,-2.16,9.4,-0.47,-0.06,-0.07,0.02,A
254,30,65,59,45,-2.28,9.31,-0.99,-0.08,-0.14,0.04,A
254,30,65,59,45,-2.33,9.32,-0.79,-0.14,-0.06,0.02,A
254,30,65,59,45,-2.3,9.43,-0.33,-0.13,0,0.03,A
254,30,65,59,45,-2.33,9.38,-0.56,-0.07,-0.06,0.04,A
254,31,65,59,45,-1.91,9.35,-0.63,-0.09,-0.11,0,A
254,30,64,59,45,-2.3,9.48,-0.5,-0.08,-0.08,0.01,A
255,30,65,59,45,-2.6,9.25,-0.69,-0.06,-0.13,0.03,A
255,31,65,59,45,-2.32,9.32,-0.72,-0.09,-0.07,0.09,A
255,29,64,59,45,-1.86,9.51,-0.94,-0.11,-0.12,0.08,A
255,30,65,59,45,-2.07,9.21,-0.69,-0.16,-0.09,0.03,A
255,30,65,59,45,-2.11,9.4,-0.41,-0.16,-0.08,0.05,A
255,30,65,59,45,-2.12,9.38,-0.16,-0.15,-0.05,0.03,A
255,30,65,59,45,-2.6,9.23,-0.61,-0.09,-0.11,0.03,A
256,30,65,59,45,-2.09,9.56,-0.28,-0.11,-0.03,0.07,A
256,30,65,59,45,-1.64,9.53,-0.37,-0.01,-0.1,0,A
256,30,64,59,45,-2.01,9.5,-0.37,0.05,-0.09,-0.07,A
256,29,65,59,45,-2.18,9.15,-1.04,0.01,-0.09,-0.02,A
256,30,65,59,45,-2.17,9.34,-1.06,-0.06,-0.04,-0.02,A
256,30,65,59,45,-2.48,9.38,-0.79,-0.1,-0.01,-0.02,A
256,30,65,59,45,-2.45,9.44,-0.25,-0.11,0.05,0.02,A
256,30,65,59,45,-2.01,9.51,-0.86,-0.02,0.01,0.02,A
257,30,65,59,45,-2.17,9.38,-0.8,-0.04,0.04,-0.02,A
257,30,65,59,45,-2.52,9.29,-0.9,-0.02,0,0.02,A
258,30,65,59,45,-2.15,9.48,-1.04,-0.05,0.07,0.02,A
258,30,65,59,45,-2.05,9.36,-0.9,-0.08,0.01,0.01,A
259,30,65,59,45,-2.27,9.45,-1.01,0,-0.01,-0.02,A
260,30,64,59,45,-2.49,9.29,-1.2,-0.05,0.08,-0.02,A
260,30,64,59,45,-2.53,9.41,-0.9,-0.06,0.01,0.02,A
260,30,65,59,45,-2.15,9.42,-1.16,-0.06,-0.04,0,A
261,31,64,59,45,-2.09,9.39,-1.33,-0.04,0.03,-0.01,A
261,30,65,59,45,-2.24,9.36,-0.87,-0.1,0.02,0,A
261,31,65,59,45,-2.38,9.39,-1.02,-0.05,0.03,-0.01,A
261,31,65,59,45,-2.16,9.39,-1.21,-0.03,-0.07,-0.01,A
261,31,65,59,45,-2.45,9.28,-1.25,-0.06,0.05,-0.02,A
261,30,65,59,45,-2.43,9.27,-1.19,-0.07,0.05,0.01,A
261,31,65,59,46,-2.33,9.28,-1.33,-0.07,0.01,0,A
261,31,65,59,45,-2.5,9.35,-1.27,-0.08,-0.01,0.01,A
261,31,65,59,45,-2.33,9.34,-1.37,-0.1,-0.02,0.03,A
261,31,65,59,45,-2.28,9.32,-1.39,-0.12,0.01,0.02,A
261,31,65,59,45,-2.38,9.3,-1.14,-0.11,0.01,0.01,A
261,31,65,59,45,-2.37,9.34,-1.27,-0.09,-0.01,0.02,A
260,31,65,59,45,-2.27,9.29,-1.38,-0.12,-0.02,0.01,A
260,31,65,59,45,-2.31,9.32,-1.19,-0.12,-0.04,0.02,A
260,31,65,59,45,-2.33,9.35,-1.41,-0.1,-0.06,0.01,A
260,31,65,59,45,-2.42,9.34,-1.3,-0.1,0.02,0,A
260,31,65,59,45,-2.35,9.31,-1.34,-0.1,-0.01,0,A
260,30,65,59,45,-2.48,9.34,-1.32,-0.08,0,0.02,A
259,31,65,59,45,-2.41,9.31,-1.38,-0.09,0.01,0.02,A
260,31,65,59,45,-2.4,9.28,-1.45,-0.11,0.03,0,A
259,31,65,59,45,-2.4,9.3,-1.43,-0.14,-0.05,0.03,A
260,31,65,59,45,-2.28,9.4,-1.22,-0.13,-0.01,0.02,A
259,31,65,59,45,-2.32,9.24,-1.2,-0.13,-0.05,0.01,A
260,31,65,59,45,-2.57,9.35,-1.21,-0.13,-0.03,0.03,A
260,31,65,59,45,-2.3,9.4,-1.28,-0.13,-0.09,0.06,A
260,31,65,59,45,-2.38,9.3,-1.28,-0.12,-0.03,0.03,A
260,31,65,59,45,-2.25,9.33,-1.24,-0.13,0.02,0.02,A
260,31,65,59,45,-2.22,9.28,-1.05,-0.16,-0.02,0.02,A
260,31,65,59,45,-2.48,9.38,-1.2,-0.12,-0.07,0.03,A
259,31,65,59,45,-2.23,9.35,-1.41,-0.13,0.01,0.02,A
260,30,65,59,45,-2.34,9.4,-1.23,-0.15,0,0.02,A
259,31,65,59,45,-2.2,9.39,-0.95,-0.13,0.01,0.02,A
260,31,65,60,45,-2.35,9.43,-0.9,-0.1,0,0,A
260,31,65,59,45,-2.23,9.26,-1.18,-0.08,-0.01,0,A
259,31,65,59,45,-2.51,9.37,-1.47,-0.11,0.04,0.01,A
260,31,65,59,45,-2.23,9.29,-1.2,-0.14,-0.08,0.02,A
259,31,65,60,45,-2.23,9.43,-1.05,-0.12,-0.08,0.03,A
259,31,65,59,45,-2.26,9.29,-1.18,-0.14,-0.01,0,A
259,31,65,59,45,-2.43,9.32,-1.08,-0.13,0,0.01,A
259,31,65,59,45,-2.38,9.3,-1.19,-0.14,-0.04,0.03,A
259,31,65,59,45,-2.29,9.39,-1.02,-0.13,-0.07,0.04,A
259,31,65,59,45,-2.49,9.26,-1.02,-0.13,0.03,0.02,A
259,31,65,59,45,-2.08,9.45,-0.95,-0.09,-0.01,0.03,A
259,31,65,59,45,-2.34,9.31,-1.08,-0.07,-0.02,-0.01,A
259,31,65,59,45,-2.41,9.3,-1.42,-0.09,-0.05,0.02,A
259,31,65,59,45,-2.36,9.35,-1.17,-0.14,0.01,0.02,A
259,31,65,59,45,-2.37,9.32,-1,-0.14,-0.03,0.01,A
259,31,65,59,45,-2.49,9.36,-1.13,-0.14,0.01,0.04,A
259,31,65,59,45,-2.28,9.26,-1.19,-0.15,0.05,0,A
258,31,65,59,45,-2.57,9.35,-1.25,-0.15,-0.02,0.02,A
258,31,65,59,45,-2.42,9.38,-0.99,-0.16,0.02,0.04,A
258,31,65,59,45,-2.02,9.39,-0.7,-0.16,-0.05,0,A
258,31,65,60,45,-2.4,9.49,-0.69,-0.07,-0.06,0.02,A
258,31,65,59,45,-2.31,9.31,-1.15,-0.07,0.03,0.01,A
258,31,65,60,46,-2.26,9.21,-1.17,-0.13,0,0.01,A
258,31,65,59,45,-2.46,9.35,-0.84,-0.12,-0.03,0.03,A
258,31,65,60,45,-2.24,9.37,-0.89,-0.13,-0.09,0.04,A
258,31,65,59,45,-2.23,9.35,-0.98,-0.11,0.04,0.01,A
259,31,65,59,45,-2.28,9.38,-0.85,-0.1,-0.01,0.01,A
259,31,65,60,45,-2.26,9.43,-1.05,-0.09,-0.07,0.04,A
259,31,65,59,45,-2.15,9.45,-1.01,-0.09,0.04,-0.01,A
259,31,65,59,45,-2.31,9.34,-0.98,-0.08,0.01,-0.01,A
259,31,65,59,45,-2.36,9.37,-1.08,-0.09,-0.04,0.01,A
259,31,65,60,45,-2.12,9.33,-0.89,-0.12,0,-0.01,A
259,31,65,59,45,-2.23,9.32,-1.17,-0.12,0.01,-0.02,A
259,31,65,59,45,-2.38,9.39,-0.87,-0.12,-0.06,0,A
259,31,65,59,46,-2.51,9.29,-0.9,-0.1,-0.02,0.01,A
259,31,65,59,45,-2.26,9.41,-1.06,-0.09,0.02,0.01,A
258,31,65,59,45,-2.2,9.37,-1,-0.12,-0.02,0.02,A
259,31,65,59,45,-2.41,9.34,-0.87,-0.09,0.03,0.02,A
259,31,65,59,46,-2.2,9.36,-1.19,-0.1,-0.01,0.02,A
259,31,65,59,45,-2.36,9.27,-1.11,-0.13,0.04,-0.02,A
258,31,65,59,45,-2.34,9.38,-0.92,-0.13,-0.05,0.03,A
259,31,65,59,46,-2.49,9.41,-0.89,-0.09,0.03,0.03,A
259,31,65,60,45,-2.15,9.22,-0.88,-0.14,0,0.02,A
259,30,65,59,45,-2.3,9.44,-0.9,-0.09,-0.05,0.02,A
259,31,65,59,45,-2.49,9.37,-0.89,-0.08,0.04,0.02,A
259,31,65,59,45,-2.3,9.22,-1.08,-0.08,0,0.02,A
259,31,65,60,45,-2.31,9.36,-1.09,-0.11,0.02,0.02,A
259,31,65,59,45,-2.23,9.39,-0.9,-0.14,0,0.01,A
259,31,65,59,46,-2.22,9.45,-0.75,-0.09,-0.02,-0.01,A
259,31,65,59,45,-2.3,9.36,-1.04,-0.08,-0.03,-0.02,A
259,31,65,59,45,-2.48,9.24,-1.11,-0.1,0.04,-0.01,A
259,31,65,59,45,-2.41,9.29,-1.13,-0.12,0,0.01,A
259,31,65,59,45,-2.4,9.39,-0.92,-0.14,-0.03,0,A
258,31,65,59,45,-2.25,9.36,-0.82,-0.11,-0.06,0.05,A
258,31,65,59,45,-2.2,9.29,-0.91,-0.11,-0.03,0.02,A
259,31,65,59,45,-2.28,9.45,-1.02,-0.1,-0.06,0.02,A
259,31,65,59,45,-2.24,9.39,-0.91,-0.11,-0.06,0.01,A
258,31,65,59,45,-2.15,9.39,-0.95,-0.12,-0.07,0,A
259,31,65,59,45,-2.35,9.38,-0.76,-0.11,-0.01,0,A
259,31,65,59,45,-2.41,9.34,-0.84,-0.1,-0.01,0,A
259,30,65,59,45,-2.4,9.28,-1,-0.1,0.01,0.01,A
259,31,65,59,45,-2.39,9.28,-1.08,-0.12,0.02,0.01,A
258,31,65,60,45,-2.39,9.31,-0.93,-0.11,-0.03,0.03,A
258,31,65,59,45,-2.41,9.33,-0.74,-0.13,-0.03,0.02,A
259,31,65,59,45,-2.37,9.35,-0.91,-0.1,-0.02,0.03,A
259,31,65,59,45,-2.33,9.3,-0.93,-0.12,0.02,0.02,A
259,31,65,59,45,-2.36,9.28,-1.13,-0.14,-0.02,0.02,A
258,31,65,60,45,-2.29,9.39,-0.78,-0.15,-0.06,0.03,A
258,31,65,59,45,-2.29,9.42,-0.57,-0.11,-0.04,0.02,A
258,31,65,60,45,-2.12,9.37,-0.89,-0.09,-0.04,0,A
258,31,65,59,45,-2.38,9.34,-0.91,-0.11,-0.07,0.01,A
258,31,65,59,45,-2.43,9.34,-0.95,-0.11,-0.05,0.02,A
258,31,65,59,46,-2.3,9.28,-0.68,-0.15,0.06,0.02,A
258,31,65,59,45,-2.41,9.38,-0.66,-0.11,-0.05,0.02,A
258,31,65,59,45,-2.36,9.3,-0.91,-0.11,0.01,0.01,A
258,31,65,59,45,-2.37,9.41,-0.82,-0.09,0,0.01,A
258,31,65,59,45,-2.38,9.31,-0.83,-0.09,-0.05,0.03,A
258,31,65,59,45,-2.24,9.38,-0.88,-0.11,-0.07,0.02,A
258,31,65,59,45,-2.36,9.39,-0.92,-0.12,0,0.03,A
258,31,65,59,45,-2.26,9.3,-0.8,-0.11,0,0.03,A
258,31,65,59,45,-2.24,9.39,-0.76,-0.11,-0.08,0.02,A
258,31,65,59,45,-2.41,9.32,-0.81,-0.12,-0.01,0.03,A
258,31,65,59,45,-2.19,9.38,-0.91,-0.13,0.02,0.02,A
258,31,65,59,45,-2.44,9.31,-0.65,-0.1,-0.01,0.02,A
258,31,65,59,45,-2.27,9.32,-0.85,-0.1,-0.03,0.03,A
258,31,65,59,45,-2.29,9.42,-0.91,-0.12,0.02,0.02,A
258,30,65,60,45,-2.38,9.29,-0.78,-0.11,0.01,0.01,A
258,31,65,59,45,-2.26,9.32,-0.83,-0.13,-0.04,0.03,A
258,31,65,59,45,-2.12,9.43,-0.77,-0.11,-0.01,0.02,A
258,31,65,59,46,-2.25,9.3,-0.65,-0.14,-0.08,0,A
258,31,65,59,45,-2.3,9.45,-0.7,-0.09,-0.08,0.03,A
258,31,65,60,45,-2.4,9.28,-0.74,-0.12,-0.02,0.05,A
258,31,65,59,45,-2.26,9.35,-0.86,-0.13,0,0.01,A
258,31,65,59,46,-2.33,9.42,-0.58,-0.11,0.01,0.02,A
258,31,65,59,45,-2.15,9.32,-0.83,-0.1,-0.05,0.02,A
257,31,65,59,46,-2.13,9.5,-0.86,-0.12,-0.03,0.02,A
258,31,65,59,45,-2.23,9.39,-0.56,-0.11,0.03,-0.01,A
258,31,65,60,45,-2.31,9.38,-0.83,-0.08,-0.04,0.02,A
258,31,65,59,45,-2.36,9.31,-0.68,-0.11,0.01,0.03,A
258,31,65,60,45,-2.11,9.44,-0.52,-0.06,-0.06,0.02,A
258,31,65,59,45,-2.15,9.36,-0.9,-0.08,-0.01,0,A
131,60,194,176,159,-1.36,9.25,-2.51,-0.08,-0.18,0,B
124,56,194,177,160,-1.38,9.34,-2.46,-0.03,-0.1,0.02,B
122,54,195,179,161,-1.92,9.54,-1.81,-0.09,-0.06,-0.1,B
125,55,195,181,162,-1.52,8.94,-2.53,-0.18,-0.18,0.03,B
127,57,195,182,163,-1.94,9.4,-2.08,-0.2,-0.17,0.09,B
127,58,195,182,163,-1.49,9.43,-1.82,-0.15,0.13,0.06,B
127,58,196,183,163,-1.45,9.38,-2.25,-0.12,0,0.04,B
128,59,196,183,163,-1.97,9.5,-1.88,-0.12,0.06,0.04,B
128,60,196,183,163,-1.41,9.41,-2.08,0.02,0.08,0.06,B
128,60,196,183,163,-1.42,9.16,-2.41,-0.08,-0.01,0.02,B
128,61,196,183,163,-1.62,9.51,-2.42,-0.14,0,0.01,B
128,61,196,183,163,-1.7,9.65,-2.16,-0.06,0.05,0.04,B
128,62,196,182,163,-1.48,9.18,-2.45,-0.07,-0.02,0.04,B
128,63,196,183,163,-1.7,9.59,-2.38,-0.14,-0.05,0,B
128,63,197,183,163,-1.58,9.44,-2.06,-0.11,0.03,0.01,B
128,64,197,183,163,-1.55,9.42,-2.38,-0.09,0.02,0.01,B
128,64,197,183,163,-1.62,9.57,-2.17,-0.09,0.01,0.01,B
128,63,197,183,163,-1.63,9.37,-2.33,-0.07,-0.03,0.03,B
128,63,197,183,163,-1.51,9.46,-2.5,-0.05,-0.02,0.06,B
128,63,197,182,162,-1.59,9.54,-2.34,-0.08,0.03,0.03,B
128,63,197,183,162,-1.45,9.37,-2.42,-0.11,-0.02,0.03,B
128,63,197,183,162,-1.58,9.54,-2.28,-0.11,-0.02,0.02,B
128,63,197,182,161,-1.55,9.43,-2.33,-0.08,-0.06,0,B
128,63,196,182,161,-1.65,9.38,-2.33,-0.08,0.06,0,B
127,63,196,182,161,-1.57,9.54,-2.05,-0.09,0.05,-0.02,B
117,56,196,181,160,-1.54,9.44,-2.4,-0.11,0.14,-0.05,B
115,55,195,181,161,-1.59,9.26,-2.51,-0.05,-0.04,0,B
115,55,194,181,160,-1.74,9.55,-2.38,-0.09,0.03,0,B
115,55,194,180,160,-1.58,9.32,-2.47,-0.06,0.05,0.03,B
115,55,194,180,160,-1.51,9.36,-2.45,-0.1,0.04,0,B
116,56,194,179,160,-1.63,9.46,-2.58,-0.1,-0.03,0.03,B
116,56,194,179,160,-1.4,9.44,-2.28,-0.09,0.05,0.03,B
117,56,194,179,160,-1.43,9.5,-2.73,-0.05,0.02,-0.01,B
118,56,194,179,160,-1.76,9.39,-2.56,-0.09,0.04,0,B
119,57,194,179,160,-1.69,9.23,-2.74,-0.1,0.04,0,B
120,58,194,179,160,-1.62,9.45,-2.61,-0.11,0.01,0.01,B
121,59,194,179,159,-1.48,9.43,-2.44,-0.09,0.05,0.02,B
122,60,195,179,159,-1.48,9.38,-2.42,-0.12,0.03,-0.01,B
124,61,195,179,159,-1.75,9.23,-2.47,-0.08,-0.03,0.02,B
125,63,195,179,158,-1.68,9.5,-2.63,-0.09,0.04,0.01,B
127,64,196,179,157,-1.44,9.36,-2.62,-0.11,-0.09,0.02,B
128,65,196,179,156,-1.82,9.44,-2.41,-0.08,-0.06,0.04,B
128,66,196,179,156,-1.38,9.34,-2.59,-0.1,0,0.01,B
128,67,196,178,156,-1.69,9.39,-2.54,-0.11,0.01,0.02,B
129,68,196,178,156,-1.53,9.35,-2.53,-0.09,0.03,0.04,B
129,70,196,178,156,-1.54,9.5,-2.54,-0.09,0.01,0.02,B
129,71,196,177,156,-1.54,9.32,-2.77,-0.1,0.04,0,B
129,72,196,177,156,-1.6,9.41,-2.48,-0.11,-0.04,0.04,B
130,73,196,177,156,-1.51,9.51,-2.55,-0.1,-0.04,0.02,B
130,73,196,177,156,-1.5,9.47,-2.57,-0.09,-0.06,0.03,B
130,74,196,177,156,-1.69,9.48,-2.5,-0.09,-0.02,0.02,B
130,74,196,177,156,-1.53,9.36,-2.69,-0.1,0.02,0,B
130,74,196,177,156,-1.56,9.38,-2.61,-0.11,-0.01,0,B
130,75,196,178,156,-1.58,9.38,-2.64,-0.09,-0.01,0.03,B
130,75,196,178,157,-1.58,9.45,-2.69,-0.06,-0.09,0.02,B
131,75,196,178,157,-1.52,9.18,-2.84,-0.11,-0.04,-0.01,B
132,75,196,179,158,-1.73,9.33,-2.67,-0.13,-0.07,-0.01,B
133,75,196,179,159,-1.68,9.31,-2.69,-0.13,-0.03,-0.03,B
133,75,197,180,159,-1.59,9.18,-2.82,-0.13,-0.06,-0.02,B
135,75,197,181,160,-1.82,9.5,-2.43,-0.14,-0.11,0.02,B
135,75,197,181,160,-1.64,9.24,-2.63,-0.13,-0.04,0.01,B
135,75,197,181,160,-1.7,9.32,-2.62,-0.14,-0.03,0.02,B
135,75,197,182,161,-1.87,9.42,-2.38,-0.08,0.08,0.05,B
135,75,197,181,161,-1.68,9.5,-2.67,-0.14,0.03,0.05,B
135,75,198,181,161,-1.6,9.4,-2.58,-0.11,0.01,0.05,B
134,74,197,181,161,-1.68,9.48,-2.39,-0.11,-0.04,0.05,B
134,73,198,181,161,-1.54,9.42,-2.3,-0.08,0.04,0.02,B
134,73,198,181,161,-1.4,9.25,-2.65,-0.07,0.03,0,B
134,70,197,180,161,-1.74,9.5,-2.45,-0.13,-0.01,0.02,B
133,69,197,180,161,-1.62,9.36,-2.37,-0.09,0.01,0.01,B
133,69,197,180,160,-1.48,9.43,-2.57,-0.09,-0.01,0.02,B
133,69,196,179,160,-1.73,9.61,-2.59,-0.1,-0.06,0.03,B
133,69,196,179,160,-1.57,9.25,-2.69,-0.11,-0.01,0.02,B
133,69,196,179,160,-1.5,9.39,-2.45,-0.1,0.04,0.03,B
133,69,196,178,160,-1.51,9.5,-2.62,-0.07,0.03,0.03,B
133,68,196,178,160,-1.44,9.27,-2.69,-0.09,0.06,0.01,B
133,69,196,178,159,-1.61,9.4,-2.59,-0.09,-0.02,0.04,B
133,68,196,177,159,-1.43,9.4,-2.79,-0.07,0.09,0.02,B
133,67,195,177,159,-1.34,9.29,-2.86,-0.12,0.08,-0.04,B
132,65,195,176,159,-1.71,9.53,-2.51,-0.13,0.09,0.01,B
130,63,194,176,159,-1.45,9.52,-2.66,-0.06,0.21,-0.05,B
130,62,194,175,159,-1.16,9.31,-2.73,-0.11,0.01,0.02,B
128,61,193,174,159,-1.64,9.28,-2.89,-0.12,-0.05,0.01,B
128,61,193,173,158,-1.75,9.4,-2.54,-0.08,0.08,0.03,B
127,61,193,172,158,-1.39,9.21,-3,-0.12,0.05,0.08,B
127,61,192,172,157,-1.32,9.53,-2.72,-0.12,-0.04,0.06,B
127,60,192,172,157,-1.32,9.47,-2.52,-0.14,0.04,0.04,B
125,58,192,171,157,-1.44,9.41,-2.83,-0.1,-0.01,0,B
126,58,192,171,157,-1.43,9.3,-2.71,-0.14,0.08,0,B
124,57,192,171,157,-1.24,9.41,-2.74,-0.1,-0.01,0.02,B
122,56,191,171,157,-1.49,9.37,-2.7,-0.11,0.05,0.02,B
120,55,191,170,157,-1.33,9.4,-2.73,-0.08,0.06,-0.01,B
118,53,190,170,156,-1.46,9.45,-2.59,-0.1,0.08,0,B
116,52,190,170,156,-1.39,9.37,-2.79,-0.09,0.02,0.02,B
115,52,189,169,155,-1.47,9.39,-2.75,-0.1,0.08,-0.01,B
114,51,189,168,155,-1.22,9.3,-2.83,-0.06,0.06,0,B
114,51,189,168,154,-1.38,9.52,-2.69,-0.09,-0.05,0,B
114,51,188,168,154,-1.42,9.41,-2.87,-0.1,-0.04,-0.01,B
114,51,188,168,154,-1.41,9.26,-2.85,-0.12,0.04,0.01,B
114,51,188,168,154,-1.53,9.47,-2.79,-0.09,-0.03,0.03,B
115,51,188,168,154,-1.39,9.38,-2.76,-0.07,0,0.01,B
115,51,188,168,153,-1.46,9.28,-2.86,-0.12,-0.05,0.02,B
116,52,188,168,153,-1.52,9.39,-2.9,-0.12,-0.03,0.04,B
116,53,188,168,153,-1.34,9.4,-2.79,-0.1,-0.02,0.02,B
117,54,188,168,153,-1.37,9.46,-2.86,-0.1,-0.03,0.02,B
117,54,189,168,153,-1.43,9.32,-2.95,-0.14,0.01,0.01,B
117,55,188,168,153,-1.49,9.44,-2.76,-0.13,-0.03,0.03,B
117,54,189,167,153,-1.34,9.44,-2.79,-0.12,0.04,0.01,B
117,54,188,167,153,-1.32,9.37,-2.73,-0.11,-0.05,0.02,B
117,55,188,167,153,-1.6,9.42,-2.61,-0.12,-0.01,0.01,B
117,54,188,167,153,-1.32,9.36,-2.79,-0.09,0.06,0.02,B
117,55,188,167,153,-1.43,9.39,-2.82,-0.1,-0.05,0.03,B
118,55,188,167,153,-1.49,9.4,-2.72,-0.12,-0.07,0.05,B
118,55,188,167,153,-1.48,9.32,-2.83,-0.14,-0.01,0.04,B
118,55,188,167,153,-1.47,9.41,-2.73,-0.15,-0.01,0.04,B
118,55,188,167,153,-1.24,9.48,-2.72,-0.14,-0.07,0.02,B
118,54,188,167,153,-1.38,9.33,-2.57,-0.15,-0.04,0.02,B
118,54,188,167,152,-1.35,9.32,-2.75,-0.14,-0.01,0.02,B
118,55,187,167,152,-1.27,9.42,-2.58,-0.17,-0.03,0.03,B
119,55,187,167,152,-1.45,9.42,-2.53,-0.13,0,0.03,B
118,54,187,167,152,-1.33,9.45,-2.66,-0.13,-0.03,0.03,B
117,54,187,167,153,-1.46,9.46,-2.65,-0.15,-0.06,0.02,B
117,54,187,166,152,-1.52,9.46,-2.52,-0.16,-0.01,0.04,B
117,54,187,166,152,-1.34,9.4,-2.5,-0.18,0.01,0.04,B
117,54,187,167,153,-1.25,9.5,-2.38,-0.16,-0.09,0.07,B
117,55,187,167,152,-1.34,9.37,-2.55,-0.18,-0.09,0.08,B
117,55,187,167,152,-1.36,9.49,-2.29,-0.16,-0.03,0.04,B
117,55,187,166,152,-1.41,9.45,-2.52,-0.13,-0.01,0.04,B
117,54,187,167,152,-1.17,9.41,-2.56,-0.17,-0.04,0.05,B
118,54,187,166,152,-1.24,9.53,-2.46,-0.21,-0.04,0.06,B
118,54,186,166,152,-0.98,9.37,-2.23,-0.22,-0.03,0.05,B
118,54,187,166,152,-1.12,9.65,-1.82,-0.21,-0.01,0.05,B
118,54,187,166,152,-1.02,9.52,-2.01,-0.15,-0.03,0.04,B
118,55,187,166,152,-1.2,9.48,-2.15,-0.14,-0.05,0.02,B
119,55,187,166,152,-1.27,9.63,-1.94,-0.15,0.01,0.01,B
119,55,186,166,152,-1.13,9.63,-1.89,-0.11,0,0.02,B
119,55,186,166,151,-1.21,9.52,-2.29,-0.12,-0.01,0.03,B
119,54,187,166,151,-1.1,9.49,-1.98,-0.18,0,0.02,B
119,55,186,166,152,-1.16,9.58,-2,-0.15,-0.02,0.04,B
119,55,186,166,151,-1.05,9.52,-2.13,-0.15,-0.02,0.02,B
120,54,186,166,151,-1.09,9.55,-1.89,-0.19,-0.03,0.01,B
120,54,186,166,151,-1.35,9.54,-1.85,-0.16,-0.01,0.01,B
120,55,186,166,151,-1.24,9.53,-1.92,-0.15,-0.02,0.02,B
120,54,186,166,151,-1.1,9.46,-1.93,-0.16,0.02,0.03,B
120,55,186,165,151,-1.07,9.52,-1.96,-0.19,-0.09,0.05,B
120,54,186,166,150,-1.19,9.57,-1.73,-0.18,-0.08,0.04,B
121,54,186,165,150,-1.23,9.58,-1.69,-0.18,0.03,0,B
121,54,185,165,150,-1.1,9.64,-1.53,-0.18,0,0.03,B
121,54,185,165,150,-1.03,9.58,-1.56,-0.17,0,0.03,B
121,55,185,165,150,-0.88,9.62,-1.66,-0.14,-0.04,0.01,B
121,54,185,165,150,-1.06,9.71,-1.38,-0.12,-0.02,0.01,B
121,55,185,165,150,-1.05,9.57,-1.56,-0.11,0.04,-0.02,B
122,55,185,165,150,-1.15,9.56,-1.64,-0.1,0.01,0,B
122,54,185,165,150,-1.15,9.54,-1.71,-0.11,0.02,0.01,B
122,55,185,165,150,-1.1,9.54,-1.7,-0.12,0.04,0,B
122,54,185,165,150,-1.13,9.56,-1.62,-0.16,0.03,0,B
122,54,185,165,150,-1.07,9.66,-1.49,-0.14,0.04,0.01,B
123,55,185,164,149,-0.93,9.57,-1.53,-0.13,0.02,0,B
122,54,185,165,149,-1.37,9.69,-1.39,-0.16,0.2,-0.03,B
123,56,186,165,150,-1.19,9.67,-1.35,-0.11,0.1,0,B
124,57,187,165,150,-0.98,9.54,-1.68,-0.09,0.01,-0.01,B
125,59,187,165,150,-1.1,9.62,-1.69,-0.08,0.01,-0.02,B
126,59,188,166,150,-1.26,9.39,-1.66,-0.12,-0.03,-0.01,B
126,60,188,166,150,-1.27,9.47,-1.68,-0.11,-0.07,0.05,B
127,61,188,166,150,-0.96,9.69,-1.33,-0.14,0,0.02,B
128,62,188,167,150,-0.88,9.45,-1.49,-0.12,0.05,0,B
131,64,189,167,150,-1.33,9.6,-1.66,-0.08,0.01,-0.02,B
134,67,190,168,150,-1.02,9.34,-1.62,-0.13,0,-0.03,B
135,68,190,169,150,-1.26,9.5,-1.55,-0.09,-0.08,0.01,B
137,68,190,169,150,-1.47,9.74,-1.33,-0.04,0,0.03,B
137,69,190,169,150,-1.11,9.41,-1.94,-0.07,0.05,0,B
137,69,190,169,150,-1.25,9.64,-1.63,-0.09,-0.07,0.04,B
138,69,190,169,149,-1.31,9.68,-1.4,-0.08,0.07,0,B
138,69,190,169,149,-0.95,9.35,-1.79,-0.06,-0.04,0.01,B
138,69,190,169,149,-1.22,9.61,-1.76,-0.08,-0.11,0.04,B
138,69,190,169,149,-1.17,9.54,-1.61,-0.1,0.05,-0.01,B
138,69,190,169,149,-1.27,9.57,-1.78,-0.05,0,0,B
138,69,190,169,149,-1.12,9.59,-1.74,-0.11,0.01,-0.01,B
138,69,190,169,149,-1.24,9.58,-1.67,-0.08,0.03,-0.02,B
137,69,190,169,149,-1.27,9.54,-1.78,-0.08,0,-0.01,B
137,69,190,169,149,-1.25,9.55,-1.92,-0.09,-0.02,0,B
138,69,190,169,149,-1.38,9.6,-1.64,-0.09,-0.03,0.01,B
138,69,190,169,149,-1.24,9.52,-1.81,-0.07,-0.01,-0.01,B
137,69,189,168,149,-1.39,9.56,-1.84,-0.09,-0.03,0.01,B
137,68,190,168,149,-1.37,9.51,-1.8,-0.09,-0.03,0.03,B
137,68,189,168,149,-1.34,9.52,-1.8,-0.09,0,0.06,B
137,68,189,168,148,-1.08,9.61,-1.86,-0.11,0.01,0.04,B
137,68,189,168,149,-1.19,9.53,-1.73,-0.12,0.03,0.01,B
137,67,189,168,149,-1.13,9.55,-1.98,-0.08,0.02,0,B
136,66,189,168,149,-1.16,9.55,-1.92,-0.12,0.03,-0.01,B
136,66,189,168,148,-1.37,9.53,-1.85,-0.14,0.05,-0.04,B
136,66,189,167,148,-1.36,9.54,-1.74,-0.16,0,0.01,B
136,66,189,168,148,-1.25,9.57,-1.65,-0.11,-0.01,0.02,B
136,66,189,168,148,-1.29,9.48,-1.83,-0.12,0.01,0.01,B
136,66,189,167,148,-1.27,9.52,-1.74,-0.11,-0.01,0.02,B
136,66,189,167,148,-1.34,9.63,-1.59,-0.07,0,0.01,B
136,66,188,168,148,-1.24,9.46,-1.91,-0.06,0.02,0,B
136,66,188,168,148,-1.26,9.48,-2.07,-0.12,-0.02,0.01,B
135,65,188,167,148,-1.23,9.51,-1.83,-0.15,0.03,-0.02,B
135,66,188,167,147,-1.4,9.55,-1.72,-0.13,0.01,0,B
135,66,188,167,147,-1.39,9.56,-1.68,-0.13,0.02,-0.01,B
135,65,187,167,148,-1.47,9.53,-1.71,-0.11,0.01,0.01,B
135,65,187,167,148,-1.41,9.48,-1.77,-0.11,-0.01,0.03,B
135,65,187,166,147,-1.29,9.56,-1.81,-0.09,-0.03,0.03,B
135,65,187,166,147,-1.27,9.56,-1.82,-0.09,-0.03,0.02,B
135,65,186,166,147,-1.15,9.42,-2.02,-0.11,0.02,0,B
135,65,186,166,147,-1.3,9.51,-1.93,-0.14,-0.03,0,B
135,65,186,166,147,-1.41,9.53,-1.62,-0.14,0,-0.01,B
134,65,186,166,146,-1.35,9.53,-1.72,-0.11,0,0.01,B
135,65,186,165,146,-1.4,9.58,-1.68,-0.11,0,0.01,B
135,65,186,165,146,-1.37,9.47,-1.83,-0.09,-0.04,0.04,B
134,65,186,166,146,-1.37,9.59,-1.59,-0.09,-0.01,0.02,B
134,65,185,165,146,-1.28,9.46,-1.93,-0.06,-0.01,0,B
135,65,186,165,146,-1.34,9.45,-1.97,-0.1,0,-0.01,B
134,65,185,165,146,-1.4,9.57,-1.83,-0.11,0,-0.01,B
134,65,186,165,146,-1.58,9.52,-1.73,-0.1,0.01,0,B
134,65,185,165,146,-1.42,9.47,-1.81,-0.09,-0.02,0.02,B
134,65,185,165,146,-1.49,9.61,-1.7,-0.08,0.01,0.03,B
134,64,185,165,146,-1.3,9.5,-1.91,-0.09,0.02,0.03,B
135,64,185,165,146,-1.36,9.48,-1.94,-0.12,0.01,0.03,B
134,65,185,165,146,-1.34,9.64,-1.75,-0.12,0.02,0.04,B
135,65,185,165,146,-1.02,9.4,-1.77,-0.11,0,0.02,B
134,65,185,165,146,-1.27,9.58,-1.62,-0.09,0,-0.01,B
135,65,185,165,146,-1.38,9.52,-1.87,-0.1,0.02,-0.03,B
135,65,185,165,146,-1.39,9.49,-1.96,-0.07,-0.05,0,B
134,65,185,165,146,-1.41,9.49,-1.84,-0.11,0.02,-0.01,B
134,65,185,165,146,-1.37,9.5,-1.73,-0.09,0.03,-0.01,B
134,65,185,165,145,-1.43,9.5,-1.89,-0.07,0,0,B
134,65,185,165,145,-1.42,9.48,-2.13,-0.07,0,0.01,B
134,65,185,165,145,-1.45,9.51,-1.91,-0.1,-0.01,0.01,B
133,65,185,164,145,-1.47,9.48,-1.87,-0.09,-0.02,0.01,B
133,64,184,164,145,-1.51,9.5,-2.01,-0.09,-0.01,0.03,B
133,64,184,164,145,-1.41,9.48,-2.04,-0.1,0.03,0,B
134,64,184,164,145,-1.46,9.49,-2.01,-0.09,0.02,0.02,B
134,64,184,164,145,-1.4,9.59,-1.92,-0.09,-0.03,0.04,B
133,64,184,163,145,-1.36,9.49,-2.05,-0.11,0.03,0.01,B
133,64,184,163,145,-1.43,9.57,-1.94,-0.11,-0.01,0.02,B
133,64,183,163,145,-1.34,9.58,-1.97,-0.11,0.02,0,B
133,64,184,163,145,-1.44,9.5,-2.02,-0.11,-0.03,0.01,B
133,64,183,163,145,-1.46,9.51,-1.88,-0.11,0,0,B
133,63,183,163,145,-1.48,9.54,-2,-0.1,0.03,0.01,B
133,64,183,163,145,-1.38,9.53,-1.94,-0.1,-0.02,0.02,B
133,64,183,163,144,-1.46,9.46,-2.02,-0.1,0.03,0.01,B
133,64,183,163,145,-1.61,9.44,-1.96,-0.12,0.01,0.03,B
133,63,183,163,144,-1.4,9.53,-1.88,-0.1,-0.01,0.02,B
133,63,183,163,144,-1.36,9.56,-1.99,-0.07,0,0.02,B
133,64,183,163,145,-1.39,9.52,-2.05,-0.09,-0.02,0,B
133,64,183,163,144,-1.35,9.53,-1.99,-0.1,-0.01,-0.01,B
133,63,183,163,144,-1.34,9.49,-2.03,-0.09,-0.01,-0.01,B
133,63,183,163,145,-1.4,9.45,-2.12,-0.11,-0.02,-0.01,B
133,63,183,163,144,-1.59,9.45,-2.06,-0.12,0.04,0,B
133,63,183,163,144,-1.51,9.47,-1.92,-0.11,0.02,0.02,B
132,63,183,163,144,-1.45,9.52,-1.98,-0.1,0.02,0.02,B
132,63,183,163,144,-1.4,9.47,-2.05,-0.1,-0.02,0.04,B
132,63,183,163,144,-1.3,9.57,-2.02,-0.1,-0.02,0.03,B
133,63,183,163,144,-1.32,9.51,-1.95,-0.09,0.01,0,B
133,63,183,163,144,-1.3,9.5,-2.04,-0.07,-0.02,-0.01,B
132,63,183,163,144,-1.45,9.45,-2.23,-0.08,-0.02,-0.03,B
133,63,183,163,144,-1.59,9.44,-2.11,-0.11,0,0,B
133,63,183,163,144,-1.58,9.47,-2.1,-0.12,0.02,0.01,B
132,63,183,163,144,-1.53,9.51,-1.97,-0.1,0.04,0.01,B
133,63,182,163,144,-1.49,9.46,-2.16,-0.1,-0.02,0.03,B
133,63,183,163,144,-1.52,9.57,-2.01,-0.11,0,0.03,B
133,63,182,163,144,-1.32,9.48,-2.13,-0.12,0,0.02,B
133,63,182,162,144,-1.38,9.5,-2.16,-0.12,0,0.02,B
133,63,182,163,144,-1.41,9.48,-1.96,-0.14,0,0.01,B
133,63,182,163,144,-1.26,9.59,-1.81,-0.11,-0.03,-0.02,B
133,63,182,162,143,-1.49,9.42,-2.26,-0.06,-0.08,0.01,B
133,64,182,162,143,-1.5,9.4,-2.21,-0.12,-0.03,-0.01,B
133,63,182,162,144,-1.56,9.46,-2.12,-0.12,-0.04,0.02,B
133,64,182,162,144,-1.38,9.51,-2.02,-0.16,-0.03,-0.01,B
133,63,182,162,143,-1.62,9.6,-1.7,-0.12,-0.06,-0.01,B
133,63,182,162,144,-1.58,9.44,-2,-0.08,-0.07,0.01,B
133,63,182,162,143,-1.59,9.45,-2.12,-0.11,-0.05,0.03,B
133,63,182,162,143,-1.57,9.43,-2.05,-0.13,-0.05,0.05,B
133,63,182,162,143,-1.34,9.52,-1.86,-0.15,-0.03,0.03,B
133,63,181,162,143,-1.33,9.5,-2.08,-0.13,-0.03,-0.01,B
133,63,182,162,143,-1.24,9.54,-1.83,-0.12,-0.05,-0.01,B
133,63,181,162,143,-1.62,9.53,-1.74,-0.1,-0.09,-0.04,B
133,63,181,162,143,-1.9,9.39,-1.93,-0.07,-0.02,-0.02,B
133,63,181,161,143,-1.7,9.41,-2.1,-0.14,-0.03,0.02,B
134,63,181,161,143,-1.59,9.4,-1.99,-0.11,-0.1,0.05,B
134,63,181,161,143,-1.46,9.35,-2.19,-0.16,-0.04,0.02,B
134,63,181,161,143,-1.45,9.55,-1.82,-0.21,-0.04,0.02,B
133,63,181,161,143,-1.58,9.55,-1.66,-0.18,-0.01,-0.01,B
133,63,181,161,143,-1.62,9.5,-1.52,-0.14,0.01,-0.02,B
134,63,181,161,143,-1.71,9.47,-1.74,-0.12,-0.04,0.02,B
133,63,181,161,143,-1.59,9.52,-1.58,-0.11,-0.03,0.01,B
134,63,181,160,143,-1.7,9.45,-1.82,-0.1,-0.01,0.04,B
134,63,180,161,143,-1.59,9.48,-1.8,-0.12,0.01,0.03,B
133,63,180,161,143,-1.41,9.52,-1.72,-0.14,0.01,0.03,B
134,63,180,161,143,-1.33,9.54,-1.57,-0.09,-0.02,0,B
134,63,180,160,143,-1.51,9.45,-1.84,-0.08,-0.03,-0.02,B
134,63,180,161,143,-1.61,9.51,-1.7,-0.09,-0.04,0,B
134,63,180,161,143,-1.62,9.46,-1.61,-0.09,-0.02,0,B
134,63,180,160,143,-1.85,9.41,-1.82,-0.06,0,0,B
134,63,180,161,143,-1.53,9.48,-1.73,-0.09,0.01,0.02,B
134,63,180,161,143,-1.48,9.5,-1.72,-0.06,0.01,0.01,B
134,62,180,160,143,-1.57,9.49,-1.87,-0.06,-0.04,0.01,B
134,63,180,160,143,-1.81,9.42,-2.04,-0.08,0.01,0,B
134,63,180,160,142,-1.65,9.48,-1.99,-0.09,0.03,0.02,B
134,63,180,161,143,-1.49,9.47,-1.79,-0.1,-0.01,0,B
134,63,180,161,143,-1.8,9.47,-1.9,-0.08,0.01,0.01,B
133,63,180,161,143,-1.69,9.44,-1.95,-0.1,0.06,0.01,B
133,63,180,161,143,-1.59,9.57,-1.78,-0.11,0.03,0.03,B
133,63,180,161,143,-1.64,9.51,-1.64,-0.04,0.06,0.01,B
133,62,180,160,143,-1.58,9.49,-1.99,-0.04,0.04,-0.01,B
133,63,180,161,142,-1.72,9.47,-1.97,-0.04,0.02,0,B
133,63,180,160,142,-1.6,9.39,-2.16,-0.03,0.04,0,B
133,63,180,161,143,-1.58,9.4,-2.2,-0.04,0.01,0.01,B
132,62,180,160,142,-1.66,9.47,-2,-0.07,0.05,0.01,B
132,62,180,160,143,-1.63,9.49,-2.1,-0.02,0.03,0.01,B
132,62,180,160,143,-1.68,9.31,-2.36,-0.02,0.05,0,B
132,62,180,160,142,-1.66,9.34,-2.42,-0.07,0.01,0.01,B
132,62,180,160,142,-1.7,9.44,-2.25,-0.05,0,0.01,B
132,62,180,160,142,-1.62,9.42,-2.35,-0.06,0,0.01,B
132,62,180,160,142,-1.6,9.46,-2.35,-0.08,0.02,0.01,B
132,62,180,160,142,-1.57,9.46,-2.17,-0.04,0.01,0,B
132,63,180,160,142,-1.63,9.34,-2.56,-0.01,0.02,-0.03,B
132,62,180,160,142,-1.89,9.36,-2.63,-0.05,-0.03,0.01,B
131,62,180,160,143,-1.71,9.37,-2.55,-0.08,0.01,0.01,B
132,62,180,160,142,-1.68,9.35,-2.49,-0.09,0.05,0.01,B
131,62,179,160,142,-1.7,9.39,-2.54,-0.07,0.03,0.01,B
132,62,180,160,142,-1.61,9.39,-2.61,-0.09,0.01,0.02,B
132,62,180,160,142,-1.62,9.28,-2.86,-0.13,-0.01,0.02,B
131,62,179,160,142,-1.81,9.39,-2.35,-0.15,0.02,-0.01,B
131,62,179,160,141,-1.75,9.27,-2.51,-0.11,0.03,0.01,B
131,62,179,160,142,-1.73,9.39,-2.62,-0.12,0,0.01,B
131,62,179,159,142,-1.74,9.32,-2.6,-0.13,-0.01,0.02,B
130,62,179,159,141,-1.67,9.4,-2.48,-0.13,0.01,0.04,B
130,62,179,159,141,-1.67,9.4,-2.55,-0.14,0,0.03,B
131,62,179,159,141,-1.7,9.39,-2.42,-0.14,0.01,0.02,B
131,61,179,159,141,-1.76,9.36,-2.43,-0.12,0.02,0.03,B
130,61,179,159,141,-1.68,9.46,-2.22,-0.07,-0.06,0.03,B
130,62,179,159,141,-1.57,9.38,-2.6,-0.07,-0.05,0.02,B
130,61,179,159,141,-1.59,9.34,-2.73,-0.1,-0.05,0.03,B
130,61,179,159,141,-1.73,9.38,-2.49,-0.15,-0.06,0.03,B
131,62,179,159,141,-1.66,9.43,-2.35,-0.15,-0.06,0.04,B
130,61,179,159,142,-1.58,9.35,-2.46,-0.14,-0.03,0.03,B
130,62,179,159,142,-1.73,9.39,-2.37,-0.17,0.03,0.03,B
130,62,179,160,143,-1.58,9.49,-2.34,-0.14,0.03,0.04,B
131,62,180,161,143,-1.47,9.37,-2.26,-0.15,0.03,0.01,B
131,63,182,162,142,-1.61,9.44,-2.34,-0.12,0.02,0,B
131,63,183,162,143,-1.73,9.49,-2.26,-0.12,0.09,0.02,B
132,64,183,162,142,-1.36,9.31,-2.4,-0.12,-0.04,0.01,B
132,64,183,162,141,-1.58,9.6,-2.09,-0.1,-0.05,0.03,B
132,64,184,162,141,-1.67,9.48,-2.25,-0.07,0.08,0,B
132,64,184,163,141,-1.5,9.46,-2.39,-0.07,-0.02,0.01,B
132,64,184,163,141,-1.63,9.36,-2.53,-0.1,0,0,B
132,64,184,163,141,-1.73,9.35,-2.42,-0.12,0.03,0.01,B
132,65,184,163,141,-1.65,9.4,-2.22,-0.12,0.04,0.02,B
133,64,184,162,141,-1.45,9.36,-2.4,-0.09,0.03,0.01,B
133,65,184,162,141,-1.62,9.36,-2.61,-0.09,-0.03,0.02,B
133,65,185,162,141,-1.58,9.31,-2.48,-0.11,-0.01,0.01,B
133,66,184,162,141,-1.63,9.54,-2.31,-0.09,-0.01,0.01,B
133,66,184,161,141,-1.53,9.34,-2.59,-0.11,-0.03,0.01,B
133,66,184,161,141,-1.73,9.44,-2.24,-0.13,-0.01,0.03,B
133,66,184,161,141,-1.67,9.39,-2.4,-0.13,0,0.04,B
133,66,184,161,141,-1.6,9.45,-2.29,-0.12,0.02,0.02,B
133,66,184,161,141,-1.67,9.36,-2.49,-0.1,0.02,0.01,B
133,66,184,161,141,-1.45,9.43,-2.34,-0.12,-0.01,0.02,B
133,66,184,161,141,-1.58,9.42,-2.37,-0.1,-0.03,0.02,B
133,66,184,161,141,-1.73,9.35,-2.4,-0.12,0,0.01,B
133,66,184,161,141,-1.63,9.41,-2.48,-0.14,0.01,0.05,B
133,66,183,161,141,-1.47,9.49,-2.22,-0.14,0,0.03,B
132,66,183,160,141,-1.4,9.38,-2.24,-0.13,-0.01,0.03,B
132,65,183,160,141,-1.58,9.47,-2.37,-0.09,-0.04,0.03,B
132,65,183,160,141,-1.56,9.38,-2.47,-0.13,-0.01,0.01,B
132,66,183,160,141,-1.61,9.42,-2.33,-0.14,0.01,0.01,B
132,66,183,160,141,-1.53,9.51,-2.24,-0.13,0.02,0.02,B
132,65,183,160,141,-1.47,9.39,-2.34,-0.11,0.02,0.01,B
132,65,183,160,141,-1.68,9.49,-2.26,-0.11,0,0.03,B
132,65,183,160,140,-1.47,9.5,-2.17,-0.11,-0.01,0.03,B
132,65,183,159,141,-1.64,9.39,-2.38,-0.11,-0.02,0.01,B
132,65,182,159,141,-1.52,9.41,-2.29,-0.12,-0.01,0.03,B
132,65,182,159,140,-1.48,9.51,-2.33,-0.1,0.01,0.02,B
132,65,182,159,141,-1.49,9.46,-2.3,-0.11,0,0.01,B
132,65,182,159,141,-1.63,9.39,-2.37,-0.12,0.04,0,B
132,65,182,159,140,-1.51,9.46,-2.24,-0.1,-0.01,0.01,B
132,65,182,159,141,-1.51,9.44,-2.34,-0.1,-0.02,0.01,B
131,64,182,159,140,-1.63,9.37,-2.5,-0.11,-0.01,0.01,B
132,64,182,159,140,-1.61,9.36,-2.35,-0.15,0,0.03,B
131,65,182,159,140,-1.71,9.41,-2.31,-0.12,-0.02,0.04,B
131,65,181,159,140,-1.41,9.44,-2.39,-0.14,0.01,0.04,B
131,64,182,159,140,-1.44,9.42,-2.27,-0.15,0,0.02,B
131,64,181,159,140,-1.61,9.46,-2.2,-0.14,0,0.02,B
131,65,181,159,140,-1.48,9.49,-2.12,-0.14,0.02,0.01,B
131,64,181,158,140,-1.61,9.47,-2.26,-0.13,0,0.02,B
131,64,181,158,140,-1.58,9.47,-2.15,-0.16,0.04,0.02,B
130,64,181,158,140,-1.32,9.56,-2.11,-0.13,0,0.01,B
130,64,180,158,140,-1.58,9.46,-2.25,-0.12,0,-0.01,B
130,64,180,158,140,-1.63,9.4,-2.22,-0.17,0.03,0.01,B
130,64,180,158,140,-1.56,9.57,-1.95,-0.15,0.02,0.03,B
130,64,180,158,140,-1.29,9.58,-1.83,-0.11,0.02,0.01,B
130,64,180,158,140,-1.44,9.5,-2.18,-0.07,-0.01,0,B
130,64,180,158,139,-1.57,9.41,-2.27,-0.1,0,0,B
130,64,180,158,140,-1.49,9.5,-2.17,-0.11,0.01,0.01,B
130,64,180,158,140,-1.39,9.47,-1.96,-0.11,-0.01,0,B
130,64,180,158,140,-1.5,9.53,-2.02,-0.05,-0.04,0.01,B
130,64,180,158,140,-1.61,9.5,-2.15,-0.07,0.03,0,B
130,64,180,158,140,-1.52,9.39,-2.33,-0.09,-0.01,0.02,B
130,64,180,158,140,-1.57,9.52,-2.19,-0.09,0.01,0,B
130,64,180,158,140,-1.49,9.43,-2.18,-0.09,0.01,0,B
130,64,179,158,140,-1.57,9.44,-2.23,-0.1,-0.02,0.02,B
130,64,179,158,140,-1.6,9.51,-2.3,-0.1,0,0.02,B
129,64,179,158,140,-1.54,9.52,-2.18,-0.1,0.02,0,B
129,64,179,158,140,-1.53,9.42,-2.35,-0.1,0,0.01,B
128,64,179,158,140,-1.65,9.5,-2.21,-0.1,0,0.01,B
128,64,179,158,140,-1.62,9.4,-2.34,-0.1,0.06,0.01,B
128,64,179,158,140,-1.44,9.48,-2.12,-0.12,0.01,0.01,B
126,64,178,158,140,-1.5,9.46,-2.32,-0.07,-0.04,-0.02,B
126,64,178,158,140,-1.76,9.39,-2.35,-0.1,0.02,0,B
126,63,178,157,140,-1.59,9.36,-2.34,-0.12,0.01,0.04,B
126,63,178,158,140,-1.43,9.53,-2.26,-0.14,0,0.03,B
126,64,178,158,140,-1.47,9.46,-2.16,-0.12,-0.01,0.01,B
126,63,178,157,139,-1.53,9.48,-2.07,-0.09,-0.04,0.02,B
124,63,178,157,140,-1.56,9.45,-2.28,-0.09,0.05,-0.04,B
124,64,177,157,139,-1.68,9.46,-2.37,-0.09,0,0,B
123,63,177,157,140,-1.66,9.4,-2.37,-0.1,0.02,0,B
123,63,177,157,140,-1.69,9.39,-2.28,-0.11,-0.03,0.04,B
123,62,177,157,140,-1.47,9.5,-2.09,-0.11,-0.02,0.03,B
124,63,177,157,140,-1.53,9.51,-2.26,-0.07,0.03,-0.01,B
124,63,178,157,140,-1.72,9.43,-2.33,-0.08,-0.04,0.02,B
124,63,177,157,140,-1.66,9.45,-2.35,-0.1,-0.05,0.03,B
125,63,177,157,140,-1.62,9.47,-2.33,-0.11,-0.01,0.02,B
124,63,178,157,140,-1.63,9.47,-2.35,-0.1,0,0.01,B
125,63,177,157,140,-1.5,9.43,-2.37,-0.1,0.01,0.02,B
125,64,177,157,140,-1.56,9.46,-2.28,-0.11,0,0.01,B
125,64,177,157,140,-1.62,9.46,-2.34,-0.08,-0.02,-0.01,B
125,63,178,157,140,-1.74,9.42,-2.42,-0.11,0.01,0.01,B
125,64,178,157,140,-1.59,9.41,-2.36,-0.13,-0.01,0.03,B
125,64,177,157,140,-1.62,9.48,-2.17,-0.12,0.01,0.03,B
126,64,178,157,139,-1.48,9.49,-2.26,-0.1,0,0.02,B
126,64,178,157,139,-1.56,9.48,-2.37,-0.1,0,0.01,B
126,63,177,157,139,-1.51,9.44,-2.29,-0.11,-0.03,0,B
126,64,177,157,139,-1.51,9.46,-2.26,-0.1,-0.05,0.01,B
126,64,177,157,139,-1.78,9.36,-2.26,-0.12,-0.04,0.03,B
126,63,177,157,139,-1.62,9.42,-2.27,-0.11,0,0.03,B
126,64,177,157,140,-1.52,9.44,-2.26,-0.11,-0.01,0.01,B
126,63,177,156,139,-1.67,9.39,-2.2,-0.1,0.01,0.03,B
126,64,177,156,140,-1.51,9.39,-2.47,-0.11,0.02,0.03,B
126,63,177,156,139,-1.54,9.5,-2.2,-0.12,-0.02,0.02,B
126,64,177,156,139,-1.52,9.52,-2.24,-0.09,-0.02,0.01,B
126,63,177,156,139,-1.55,9.43,-2.27,-0.09,-0.03,0,B
126,63,177,156,139,-1.69,9.36,-2.4,-0.09,0,0.01,B
126,63,177,156,139,-1.56,9.4,-2.31,-0.11,0,0.01,B
126,63,177,156,139,-1.55,9.39,-2.43,-0.12,-0.01,0.01,B
126,63,177,156,139,-1.59,9.45,-2.19,-0.13,-0.02,0.03,B
126,63,177,156,139,-1.53,9.41,-2.25,-0.12,0,0.01,B
126,63,177,156,139,-1.56,9.53,-2.3,-0.11,-0.07,0.03,B
126,63,177,156,139,-1.54,9.4,-2.35,-0.11,-0.08,0.03,B
126,63,177,156,139,-1.47,9.41,-2.25,-0.13,-0.06,0.02,B
126,63,177,156,139,-1.69,9.47,-2.31,-0.12,-0.02,0,B
126,63,177,156,139,-1.67,9.44,-2.17,-0.13,-0.02,0,B
126,63,177,156,139,-1.65,9.43,-2.18,-0.11,-0.04,0.02,B
126,63,177,156,139,-1.56,9.46,-2.2,-0.1,-0.06,0.01,B
126,63,177,156,139,-1.6,9.39,-2.32,-0.12,-0.06,0.02,B
126,63,177,156,139,-1.5,9.48,-2.35,-0.12,-0.05,0.01,B
126,63,177,156,139,-1.4,9.47,-2.14,-0.15,-0.11,-0.01,B
126,63,177,156,139,-1.64,9.47,-2.2,-0.13,-0.09,-0.01,B
126,63,177,156,139,-1.67,9.38,-2.22,-0.15,-0.08,-0.02,B
127,63,177,156,139,-1.94,9.36,-2.22,-0.19,-0.07,-0.01,B
126,63,176,156,139,-1.73,9.41,-1.81,-0.22,-0.02,0.02,B
126,63,176,156,139,-1.66,9.49,-1.73,-0.19,-0.01,0.03,B
126,63,176,156,139,-1.75,9.45,-1.92,-0.14,-0.04,0.02,B
126,63,176,156,139,-1.69,9.35,-1.89,-0.13,-0.02,0.01,B
126,63,176,156,139,-1.66,9.49,-2.05,-0.14,-0.01,0.05,B
127,63,176,156,139,-1.69,9.57,-1.77,-0.15,0.02,0.03,B
126,63,176,156,139,-1.76,10.08,-1.81,-0.07,0.06,0.01,B
126,63,176,156,139,-1.55,9.44,-1.87,-0.1,-0.02,0.02,B
127,64,176,156,139,-1.66,9.58,-1.7,-0.11,-0.02,0.05,B
127,63,176,155,139,-1.49,9.58,-1.65,-0.05,-0.07,0.05,B
128,63,176,156,139,-1.59,9.51,-1.94,-0.05,-0.07,0.05,B
128,64,176,155,139,-1.39,9.5,-2.01,-0.06,-0.04,0.05,B
128,63,177,155,139,-1.58,9.44,-2.03,-0.09,-0.04,0.03,B
128,63,177,155,139,-1.82,9.37,-2.09,-0.08,-0.01,0.04,B
128,64,177,155,138,-1.39,9.6,-1.66,-0.07,0,0.02,B
129,64,178,155,138,-1.55,9.54,-2,-0.01,-0.06,0.02,B
129,65,178,156,138,-1.7,9.45,-2.24,-0.01,0.03,0,B
128,65,178,157,137,-1.54,9.37,-2.11,-0.06,-0.06,0.03,B
129,65,178,157,137,-1.47,9.53,-2.1,-0.06,-0.04,0.06,B
129,65,179,157,137,-1.5,9.48,-2.2,-0.05,-0.07,0.05,B
130,66,179,158,137,-1.61,9.37,-2.27,-0.09,-0.01,0.05,B
131,67,180,158,137,-1.54,9.58,-2.28,-0.1,0,0.02,B
133,68,181,159,137,-1.2,9.49,-2.06,-0.09,-0.08,0.03,B
134,70,182,160,136,-1.64,9.61,-1.89,-0.07,-0.05,0.05,B
136,72,182,160,136,-1.58,9.43,-2.19,-0.06,-0.04,0.05,B
137,73,183,160,136,-1.38,9.47,-2.25,-0.02,0.02,0.04,B
138,74,183,160,136,-1.4,9.49,-2.47,0,-0.08,0.05,B
138,73,183,160,136,-1.32,9.52,-2.08,-0.03,0.05,0.03,B
138,74,183,161,137,-1.31,9.47,-2.37,0.03,-0.03,0.04,B
139,75,183,160,137,-1.67,9.35,-2.68,0,-0.01,0.04,B
139,75,183,160,137,-1.18,9.58,-2.41,-0.05,0.01,0.08,B
139,75,183,160,137,-1.1,9.41,-2.58,-0.04,0.04,0.07,B
138,75,184,160,137,-1.36,9.44,-2.6,-0.03,0.03,0.04,B
139,74,183,160,138,-1.36,9.44,-2.53,-0.03,0.05,0.04,B
138,74,184,160,138,-1.2,9.33,-2.88,-0.03,0.04,0.04,B
138,73,183,160,138,-1.11,9.4,-2.87,-0.04,0,0,B
138,73,184,160,138,-1.25,9.44,-2.76,-0.06,-0.06,0.01,B
138,73,184,160,138,-1.49,9.35,-2.79,-0.07,0.02,0.01,B
138,73,184,160,139,-1.27,9.38,-2.78,-0.1,0.1,-0.01,B
137,72,184,160,139,-1.21,9.29,-2.88,-0.1,0.06,-0.02,B
136,72,184,161,140,-1.34,9.39,-2.91,-0.07,-0.02,0.03,B
134,70,184,161,140,-1.24,9.51,-2.76,-0.12,0.17,-0.05,B
131,69,183,161,140,-1.15,9.39,-2.97,-0.06,0,-0.01,B
127,66,183,161,140,-1.49,9.57,-2.85,-0.05,0.1,-0.03,B
124,64,183,161,140,-1.38,9.22,-2.95,-0.06,0.05,-0.04,B
123,64,183,160,140,-1.27,9.32,-3.06,-0.04,-0.02,0,B
123,64,183,160,140,-1.54,9.45,-2.95,-0.05,-0.04,0,B
123,63,182,160,140,-1.47,9.29,-3.16,-0.06,0.04,-0.01,B
123,64,182,160,140,-1.36,9.41,-3.02,-0.08,-0.1,0.02,B
123,64,182,160,140,-1.63,9.5,-2.92,-0.09,0.02,0,B
125,63,182,160,141,-1.25,9.14,-3.04,-0.1,-0.03,0.02,B
126,64,182,160,140,-1.35,9.4,-3.02,-0.07,-0.11,0.04,B
128,65,182,160,140,-1.32,9.39,-2.99,-0.13,-0.06,0.03,B
129,65,182,160,141,-1.34,9.32,-3.06,-0.1,-0.07,0.05,B
130,65,183,160,141,-1.39,9.45,-2.88,-0.11,-0.03,0.01,B
131,65,183,160,141,-1.3,9.26,-3.11,-0.11,-0.03,0.03,B
131,65,183,160,141,-1.58,9.4,-2.93,-0.1,-0.01,0.01,B
131,65,183,160,141,-1.32,9.34,-3.05,-0.09,0.01,0.03,B
131,65,183,160,142,-1.36,9.31,-3.1,-0.12,0.03,0.03,B
131,65,183,160,142,-1.39,9.29,-3.24,-0.13,0.08,0.02,B
131,65,182,160,142,-1.34,9.39,-3.17,-0.11,0.01,0,B
131,65,182,160,142,-1.43,9.42,-2.75,-0.14,0.06,-0.01,B
131,65,182,160,141,-1.33,9.39,-3.03,-0.09,0.01,0.01,B
131,65,182,160,141,-1.24,9.31,-2.95,-0.12,-0.05,0.02,B
131,65,182,160,142,-1.57,9.25,-3.27,-0.12,-0.04,0.06,B
131,65,182,160,141,-1.35,9.38,-3.04,-0.17,-0.05,0.04,B
131,65,182,160,142,-1.44,9.47,-3.04,-0.14,-0.07,0.05,B
131,65,182,160,142,-1.33,9.42,-2.94,-0.19,0.03,0.03,B
131,65,183,161,141,-1.36,9.41,-2.75,-0.16,0.06,0.04,B
132,66,183,161,141,-1.33,9.45,-2.91,-0.15,-0.06,0.08,B
132,66,183,161,140,-1.32,9.47,-2.8,-0.17,-0.02,0.04,B
131,66,183,162,140,-1.16,9.31,-2.87,-0.2,-0.03,0.07,B
132,67,183,162,139,-1.1,9.39,-3.08,-0.22,-0.1,0.13,B
132,67,183,162,140,-0.92,9.24,-3.03,-0.32,-0.04,0.07,B
132,67,183,161,140,-0.71,9.55,-2.43,-0.31,-0.24,0.08,B
133,67,183,161,140,-1.05,9.59,-1.92,-0.29,-0.16,0.01,B
133,67,182,161,140,-1.26,9.43,-2.07,-0.19,-0.11,0.03,B
133,67,182,161,140,-1.15,9.6,-2.04,-0.17,-0.03,0.02,B
133,67,182,160,140,-0.96,9.61,-2.15,-0.15,0.04,-0.01,B
133,67,182,160,140,-1.06,9.62,-1.94,-0.14,0.02,0,B
133,67,182,160,140,-1.17,9.53,-2,-0.12,0.05,-0.01,B
133,67,182,160,140,-1.1,9.52,-2.25,-0.06,0.02,-0.01,B
133,67,181,160,140,-1.42,9.48,-2.19,-0.13,0.06,-0.03,B
133,67,182,160,140,-1.43,9.51,-2.04,-0.1,0.05,0.01,B
133,67,181,160,140,-1.07,9.59,-2.01,-0.06,0.06,0.01,B
133,67,181,159,140,-1.03,9.56,-2.32,-0.04,0,0,B
133,67,181,160,140,-1.28,9.5,-2.31,-0.04,0,-0.01,B
134,67,181,159,140,-1.18,9.45,-2.35,-0.06,0.02,-0.01,B
133,67,181,159,140,-1.22,9.5,-2.48,-0.07,0,0,B
133,67,181,159,140,-1.29,9.45,-2.45,-0.1,0.04,0,B
133,67,181,159,140,-1.13,9.58,-2.17,-0.09,-0.01,0.01,B
133,67,181,159,140,-1.05,9.53,-2.32,-0.07,0.01,0.01,B
133,67,181,159,140,-1.19,9.47,-2.57,-0.05,-0.05,0,B
133,67,181,159,140,-1.4,9.39,-2.58,-0.09,-0.01,0,B
133,66,181,159,140,-1.23,9.49,-2.59,-0.11,0.01,0.02,B
133,66,180,159,140,-1.17,9.55,-2.35,-0.12,0.02,0,B
133,66,180,158,140,-1.18,9.48,-2.29,-0.09,-0.02,0.01,B
133,66,180,158,140,-1.4,9.52,-2.46,-0.09,0,0.01,B
133,66,180,158,140,-1.24,9.44,-2.64,-0.1,0,0.01,B
133,66,180,158,140,-1.25,9.5,-2.48,-0.1,-0.04,0.02,B
133,66,180,158,140,-1.29,9.51,-2.38,-0.11,0,0.01,B
133,66,180,158,140,-1.14,9.51,-2.41,-0.11,-0.02,0.01,B
134,66,180,158,140,-1.25,9.52,-2.43,-0.09,-0.01,0,B
133,66,180,158,140,-1.25,9.45,-2.5,-0.12,0,-0.01,B
133,66,180,158,140,-1.4,9.5,-2.38,-0.1,0,0.01,B
133,66,180,158,140,-0.99,9.57,-2.34,-0.09,0,-0.01,B
133,66,179,158,140,-1.09,9.39,-2.68,-0.11,-0.04,-0.04,B
133,66,180,157,140,-1.64,9.45,-2.3,-0.11,-0.06,-0.04,B
133,66,180,157,140,-1.56,9.43,-2.36,-0.09,-0.04,0.01,B
134,66,180,157,140,-1.16,9.42,-2.66,-0.11,-0.04,-0.03,B
134,66,180,157,140,-1.66,9.38,-2.4,-0.15,0.04,0,B
134,66,180,158,139,-1.58,9.53,-2.11,-0.1,0.03,0.05,B
134,66,179,158,140,-0.94,9.44,-2.81,-0.06,-0.08,0.02,B
134,66,180,157,140,-1.6,9.47,-2.49,-0.12,0,0.01,B
134,66,180,158,139,-1.58,9.48,-2.04,-0.12,0.03,0.02,B
134,66,179,157,140,-1.26,9.42,-2.46,-0.05,-0.06,0.06,B
134,66,180,157,140,-0.88,9.5,-3.05,-0.09,-0.02,0.01,B
134,66,180,158,139,-1.44,9.48,-2.24,-0.2,-0.03,-0.04,B
134,66,180,157,139,-1.73,9.52,-1.98,-0.11,0.03,0,B
134,66,179,157,139,-1.42,9.48,-2.29,-0.03,0,0,B
134,66,179,157,139,-1.42,9.37,-2.48,-0.06,0.05,-0.01,B
134,66,179,157,140,-1.37,9.48,-2.62,-0.07,0.09,-0.03,B
134,66,179,156,140,-1.48,9.38,-2.73,-0.05,-0.05,0.04,B
134,66,179,156,140,-1.27,9.44,-2.64,-0.1,0.01,0.02,B
134,66,179,157,140,-1.17,9.41,-2.4,-0.12,-0.02,0.01,B
134,66,179,157,140,-1.45,9.5,-2.45,-0.07,0.07,0.01,B
134,66,179,156,140,-1.08,9.34,-2.91,-0.08,-0.03,-0.03,B
134,66,179,157,140,-1.77,9.47,-2.3,-0.12,-0.04,0.04,B
134,66,179,157,140,-1.21,9.58,-2.47,-0.06,0.05,0.01,B
134,66,179,157,140,-0.99,9.33,-2.97,-0.09,-0.01,-0.03,B
134,66,179,156,140,-1.89,9.62,-2.41,-0.06,0.01,-0.03,B
134,66,179,157,140,-1.27,9.38,-2.6,-0.09,0.03,-0.01,B
134,66,179,157,140,-1.35,9.36,-2.98,-0.07,0.01,0.01,B
135,66,179,156,140,-1.6,9.44,-2.72,-0.1,-0.1,-0.01,B
134,66,179,157,140,-1.51,9.21,-2.58,-0.13,0.03,0.01,B
134,66,178,157,140,-1.79,9.54,-2.76,-0.11,0.01,0.03,B
135,66,178,156,140,-1.32,9.41,-2.61,-0.1,0.04,-0.02,B
134,66,178,156,140,-1.47,9.3,-2.7,-0.06,-0.05,0.02,B
134,66,178,156,140,-1.42,9.38,-3.07,-0.14,0.08,-0.04,B
134,65,178,156,140,-1.23,9.44,-2.72,-0.13,-0.03,-0.08,B
134,65,177,156,140,-2.32,9.28,-2.37,-0.1,-0.18,0.05,B
135,65,177,156,139,-1.53,9.42,-2.8,-0.07,0,-0.03,B
135,65,178,156,140,-1.61,9.18,-2.75,-0.13,-0.09,0.03,B
135,65,178,157,139,-1.71,9.43,-2.83,-0.1,-0.05,0.06,B
134,65,178,156,140,-1.5,9.37,-2.5,-0.2,-0.01,0,B
135,65,178,156,139,-1.45,9.41,-2.46,-0.14,0.06,0.04,B
134,66,178,157,139,-1.55,9.52,-2.42,-0.05,-0.1,0.02,B
134,65,177,157,139,-1.76,9.19,-2.72,-0.07,-0.03,-0.01,B
134,65,178,156,139,-1.61,9.35,-2.74,-0.1,0.02,0,B
135,65,177,156,139,-1.63,9.42,-2.62,-0.14,0.01,0.01,B
134,65,177,156,139,-1.86,9.19,-2.98,-0.1,0.05,0.06,B
135,65,177,156,139,-1.73,9.34,-2.8,-0.22,0.04,0.05,B
135,65,177,156,139,-1.39,9.44,-2.35,-0.21,0.08,0.05,B
135,65,177,156,139,-1.28,9.63,-2.11,-0.09,0.03,0.02,B
135,65,177,155,139,-1.29,9.36,-2.72,-0.06,0.01,-0.01,B
135,65,177,156,139,-1.59,9.26,-2.76,-0.08,-0.05,0,B
135,65,177,156,140,-1.57,9.49,-2.63,-0.09,0.02,-0.02,B
135,65,177,156,140,-1.51,9.24,-2.57,-0.1,0.04,0.04,B
135,65,177,156,140,-1.77,9.56,-2.63,-0.13,0.11,0.05,B
135,65,176,156,140,-1.26,9.34,-2.88,-0.1,0.01,0.04,B
135,65,176,156,140,-1.52,9.32,-2.75,-0.12,-0.04,0,B
135,65,176,156,140,-1.61,9.35,-2.77,-0.13,0,0.01,B
135,65,176,156,140,-1.36,9.38,-2.83,-0.18,-0.02,0.02,B
135,65,176,156,140,-1.62,9.53,-2.27,-0.21,0.01,0.02,B
134,64,176,156,140,-1.7,9.22,-2.44,-0.2,0.1,0.04,B
134,64,176,155,140,-1.34,9.56,-2.42,-0.18,0.04,0.01,B
134,64,176,156,140,-1.2,9.39,-2.23,-0.12,-0.02,-0.01,B
134,65,176,155,140,-1.49,9.45,-2.53,-0.11,-0.05,0.03,B
134,64,176,156,140,-1.38,9.45,-2.63,-0.13,-0.02,-0.01,B
134,65,175,155,140,-1.63,9.38,-2.34,-0.16,-0.06,-0.02,B
134,65,176,156,140,-1.71,9.5,-2.38,-0.13,-0.04,0.02,B
134,64,175,155,139,-1.26,9.37,-2.28,-0.17,0,-0.01,B
134,64,175,155,139,-1.59,9.42,-2.45,-0.12,-0.03,0.01,B
134,64,175,156,139,-1.7,9.34,-2.37,-0.14,-0.06,0.02,B
133,64,175,155,139,-1.33,9.54,-2.18,-0.18,-0.01,0.03,B
134,64,175,155,139,-1.36,9.56,-2.07,-0.16,-0.05,-0.01,B
134,64,175,155,139,-1.16,9.63,-1.99,-0.07,-0.13,-0.03,B
134,64,175,155,139,-1.6,9.37,-2.61,-0.06,-0.15,-0.02,B
134,64,175,155,139,-2.17,9.49,-1.6,-0.13,-0.14,-0.05,B
133,64,175,154,139,-2.04,9.4,-1.83,-0.04,-0.06,-0.04,B
134,64,175,154,139,-1.57,9.37,-2.66,-0.02,0.07,0.05,B
134,64,175,154,138,-0.83,9.4,-2.72,-0.13,0.16,-0.02,B
134,64,175,154,139,-1.5,9.56,-2.03,-0.12,-0.01,-0.06,B
133,64,174,153,139,-2.11,9.43,-1.92,0,0.04,0,B
133,64,175,154,138,-1.78,9.34,-2.53,0.01,0.08,0.07,B
133,64,175,153,138,-1.33,9.43,-2.68,-0.03,0.09,0.05,B
134,64,174,153,138,-1.35,9.47,-2.79,-0.07,-0.06,0.01,B
133,64,175,153,138,-2.05,9.31,-2.49,-0.11,-0.03,-0.02,B
133,64,175,153,138,-2.16,9.23,-2.49,-0.14,0.16,0,B
134,64,174,153,138,-1.26,9.26,-3.32,-0.18,0.09,0.08,B
133,64,174,153,138,-1.1,9.48,-2.31,-0.29,-0.01,-0.04,B
133,64,175,153,138,-1.75,9.53,-1.99,-0.16,-0.08,0.03,B
133,64,174,153,138,-1.8,9.4,-2.2,-0.15,-0.03,-0.01,B
133,64,174,153,138,-1.71,9.42,-2.3,-0.13,-0.04,0,B
134,64,174,153,138,-1.7,9.4,-2.2,-0.14,-0.05,0.02,B
133,64,174,153,138,-1.91,9.39,-2.15,-0.1,0.03,0.03,B
134,64,174,153,138,-1.58,9.36,-2.41,-0.09,0.06,0.06,B
134,64,174,152,138,-1.57,9.4,-2.46,-0.15,0.04,0.02,B
134,64,174,153,137,-1.44,9.49,-2.13,-0.16,0.04,0.03,B
133,64,174,152,137,-1.67,9.51,-2,-0.09,0.01,0,B
134,64,174,153,137,-1.55,9.42,-2.23,-0.06,0.03,0.02,B
133,64,174,153,137,-1.64,9.38,-2.3,-0.08,-0.01,0.04,B
134,64,174,153,137,-1.3,9.53,-2.29,-0.02,-0.06,0.03,B
134,64,174,153,137,-1.75,9.38,-2.42,-0.04,-0.13,0.02,B
134,64,174,153,137,-1.66,9.37,-2.6,-0.03,-0.06,0.04,B
134,64,174,153,137,-1.62,9.38,-2.48,-0.07,-0.04,0.05,B
134,64,174,153,137,-1.39,9.39,-2.51,-0.05,-0.01,0.04,B
134,64,174,153,137,-1.57,9.43,-2.58,-0.08,-0.08,-0.02,B
134,64,174,153,137,-1.64,9.39,-2.6,-0.09,-0.06,0.03,B
134,64,174,152,137,-1.74,9.37,-2.8,-0.14,-0.07,0.04,B
134,64,174,152,137,-1.85,9.35,-2.39,-0.19,0,0.05,B
133,64,174,152,137,-1.57,9.41,-2.46,-0.19,0.02,0.05,B
133,64,174,152,137,-1.55,9.45,-2.31,-0.23,0.06,0.05,B
133,64,174,153,137,-1.24,9.55,-2.14,-0.18,0.06,0.02,B
133,64,174,152,137,-1.28,9.58,-1.92,-0.15,-0.02,0.03,B
133,64,174,152,137,-1.47,9.56,-2.06,-0.07,0.02,0.01,B
133,64,174,152,137,-1.38,9.5,-2.25,-0.04,-0.01,-0.04,B
133,64,174,152,137,-1.51,9.38,-2.32,-0.05,-0.05,-0.02,B
133,64,174,152,137,-1.52,9.52,-2.52,-0.09,-0.06,0.02,B
134,64,174,152,137,-1.35,9.49,-2.16,-0.08,-0.02,-0.04,B
134,64,174,152,137,-1.47,9.35,-2.69,-0.08,0.03,-0.09,B
134,64,174,152,137,-1.82,9.42,-2.04,-0.11,0.02,-0.1,B
134,64,174,152,137,-2.12,9.37,-2.13,-0.03,0.01,-0.03,B
134,64,174,152,137,-1.96,9.3,-2.56,-0.04,0.02,-0.01,B
134,64,174,152,137,-1.55,9.44,-2.68,-0.07,0.07,0.01,B
133,64,174,152,137,-1.78,9.39,-2.43,-0.12,-0.01,0,B
133,64,174,153,137,-1.91,9.31,-2.49,-0.11,0.07,-0.03,B
133,64,174,153,137,-1.83,9.27,-2.75,-0.16,0.04,0.02,B
133,64,174,152,137,-1.79,9.39,-2.41,-0.19,0.03,0.04,B
133,64,174,153,137,-1.69,9.4,-2.46,-0.19,0.05,0.05,B
133,64,174,152,137,-1.71,9.47,-2.25,-0.19,0.03,0.03,B
133,64,174,152,137,-1.66,9.4,-2.18,-0.15,0.03,0.06,B
133,64,174,153,137,-1.45,9.47,-2.25,-0.16,-0.02,0.05,B
133,64,174,152,137,-1.29,9.55,-2.1,-0.13,-0.02,0.01,B
133,64,174,152,137,-1.56,9.53,-1.94,-0.07,-0.07,-0.01,B
133,64,174,152,137,-1.56,9.43,-2.2,-0.01,-0.14,-0.02,B
133,64,174,153,137,-2.01,9.21,-2.76,-0.04,-0.08,-0.03,B
132,64,174,153,137,-2.05,9.3,-2.79,-0.17,-0.1,-0.02,B
133,64,175,155,135,-1.76,9.45,-2.13,-0.21,-0.07,0.04,B
133,64,175,156,134,-1.75,9.55,-2.02,-0.15,-0.05,0.06,B
133,64,175,157,133,-1.69,9.39,-2.46,-0.13,-0.06,0.04,B
133,64,175,157,133,-1.69,9.33,-2.22,-0.15,0.02,0,B
133,64,175,158,133,-1.86,9.53,-1.89,-0.14,-0.01,0.03,B
134,64,175,158,134,-1.4,9.52,-2.11,-0.09,0,0.03,B
134,65,176,158,134,-1.71,9.4,-2.22,-0.1,0.04,0.01,B
134,65,176,159,135,-1.91,9.37,-2.12,-0.14,0.05,0.05,B
135,65,176,159,135,-1.53,9.48,-2.03,-0.1,-0.01,0.08,B
135,66,176,159,136,-1.83,9.5,-2.06,-0.1,0.01,0.07,B
135,66,176,159,136,-1.56,9.37,-2.15,-0.06,-0.03,0.1,B
135,66,176,158,136,-1.56,9.49,-2.24,-0.02,0.03,0.07,B
135,66,176,158,136,-1.23,9.32,-2.53,-0.07,0.05,0.07,B
135,66,176,158,136,-1.52,9.4,-2.32,-0.08,0,0.04,B
135,66,176,158,137,-1.43,9.59,-2.1,-0.1,0.06,0.02,B
135,66,176,158,136,-1.39,9.47,-2.44,-0.09,0.03,0.02,B
135,66,176,158,137,-1.19,9.52,-2.17,-0.11,0.01,-0.01,B
135,66,176,158,136,-1.59,9.53,-2.26,-0.1,0,-0.05,B
135,66,176,158,137,-1.75,9.46,-2.15,-0.08,0,0,B
135,66,176,158,137,-1.64,9.53,-2.17,-0.05,0.01,0.04,B
135,66,176,158,136,-1.28,9.34,-2.69,-0.05,0.02,0.03,B
135,66,176,158,137,-1.36,9.49,-2.5,-0.12,0,0.03,B
135,66,175,157,137,-1.53,9.48,-2.39,-0.12,0.03,0.02,B
135,66,176,157,137,-1.5,9.44,-2.36,-0.07,0,0.04,B
136,66,175,157,136,-1.19,9.45,-2.67,-0.11,0.01,0.01,B
136,66,175,157,136,-1.64,9.37,-2.4,-0.15,-0.05,0.01,B
136,66,175,157,136,-1.44,9.47,-2.26,-0.11,-0.01,0.01,B
136,66,175,157,137,-1.54,9.5,-2.32,-0.11,-0.03,0.04,B
136,66,175,156,136,-1.22,9.53,-2.34,-0.12,-0.01,0.02,B
136,65,175,157,136,-1.41,9.48,-2.27,-0.14,-0.02,0.01,B
136,65,175,156,136,-1.35,9.54,-2.33,-0.09,0.01,0.02,B
135,65,175,157,136,-1.38,9.35,-2.44,-0.14,-0.03,0.01,B
136,65,175,156,136,-1.53,9.44,-2.22,-0.14,-0.02,0.02,B
136,66,174,156,136,-1.47,9.47,-2.02,-0.11,-0.03,0.04,B
136,66,175,156,136,-1.36,9.35,-2.44,-0.09,-0.01,0.02,B
136,66,175,156,136,-1.21,9.49,-2.69,-0.11,-0.03,0.01,B
136,65,175,156,136,-1.51,9.42,-2.33,-0.15,0.04,0,B
136,66,174,156,136,-1.31,9.51,-2.42,-0.1,-0.04,0.03,B
136,66,175,156,137,-1.42,9.46,-2.31,-0.14,-0.02,0.03,B
136,66,174,156,137,-1.42,9.49,-2.09,-0.12,-0.01,0.03,B
136,65,175,156,136,-1.33,9.52,-2.23,-0.09,0.01,0.03,B
136,65,174,156,137,-1.34,9.48,-2.37,-0.11,-0.03,0.01,B
136,66,175,155,136,-1.32,9.41,-2.34,-0.1,-0.04,0.01,B
136,65,175,156,137,-1.43,9.44,-2.31,-0.09,-0.01,0.01,B
136,66,174,156,136,-1.34,9.48,-2.43,-0.11,0.01,0.01,B
136,65,174,155,137,-1.53,9.49,-2.44,-0.15,-0.02,0.01,B
136,65,175,155,136,-1.52,9.49,-2.29,-0.16,0,0.03,B
136,65,174,155,136,-1.41,9.5,-2.08,-0.16,0.01,0.01,B
136,65,175,155,136,-1.54,9.5,-2.15,-0.14,0.01,0.02,B
136,65,174,155,136,-1.46,9.5,-2.28,-0.13,-0.02,0.06,B
136,65,174,155,136,-1.28,9.54,-2.22,-0.15,-0.05,0.03,B
136,65,174,155,136,-1.35,9.44,-2.19,-0.13,-0.08,0.06,B
136,65,174,155,136,-1.43,9.52,-2.07,-0.14,-0.03,0.08,B
136,65,174,155,136,-1.11,9.5,-2.06,-0.14,0.03,0.03,B
136,65,174,155,136,-1.25,9.58,-1.92,-0.12,0.02,0.01,B
136,65,174,155,136,-1.18,9.53,-2.08,-0.08,-0.03,0.01,B
136,65,174,155,136,-1.33,9.5,-2.17,-0.1,-0.01,0.01,B
137,65,174,155,136,-1.38,9.43,-2.05,-0.1,0.02,0,B
136,65,174,155,136,-1.18,9.5,-2.23,-0.09,0.01,0.01,B
136,65,174,155,136,-1.36,9.47,-2.14,-0.13,-0.01,-0.01,B
136,65,174,155,136,-1.44,9.55,-1.89,-0.08,0.01,0.01,B
137,65,174,155,136,-1.13,9.57,-2.01,-0.07,-0.02,0.01,B
137,65,174,155,136,-1.46,9.48,-2.35,-0.01,-0.04,-0.02,B
136,65,174,155,135,-1.55,9.47,-2.37,-0.06,-0.01,0,B
137,65,174,155,135,-1.36,9.46,-2.31,-0.1,0.03,0.01,B
137,65,174,155,135,-1.45,9.51,-2.29,-0.09,0,0.01,B
137,65,174,155,135,-1.43,9.31,-2.48,-0.15,0.01,0.02,B
137,65,174,155,135,-1.53,9.47,-2.22,-0.18,0.02,0.05,B
137,65,174,154,135,-1.15,9.55,-1.86,-0.15,0.02,0.04,B
136,65,174,154,135,-1.13,9.56,-1.99,-0.08,-0.02,0.02,B
137,65,174,154,135,-1.25,9.48,-2.37,-0.07,-0.03,0,B
136,65,174,155,135,-1.42,9.42,-2.16,-0.11,-0.02,0.01,B
137,65,174,155,135,-1.41,9.5,-2.17,-0.11,-0.02,0.02,B
136,64,174,154,134,-1.26,9.58,-2.04,-0.12,0.06,-0.01,B
137,64,174,154,134,-1.41,9.46,-2.12,-0.07,-0.04,0.02,B
136,64,174,154,135,-1.51,9.51,-2.2,-0.05,-0.01,0.01,B
136,64,174,154,134,-1.35,9.38,-2.49,-0.09,-0.03,0.03,B
136,64,174,153,134,-1.34,9.47,-2.28,-0.11,-0.04,0.04,B
136,64,174,153,134,-1.34,9.46,-2.14,-0.11,-0.04,0.03,B
136,64,174,153,134,-1.25,9.48,-2.21,-0.09,-0.01,0.03,B
136,64,174,153,134,-1.19,9.5,-2.27,-0.09,-0.06,0.02,B
136,64,174,153,134,-1.46,9.49,-2.36,-0.07,-0.03,0,B
136,64,173,153,134,-1.48,9.41,-2.32,-0.12,-0.03,0.01,B
136,64,174,153,134,-1.32,9.48,-2.29,-0.11,-0.03,0.03,B
136,64,174,153,134,-1.41,9.53,-2.05,-0.11,-0.04,0,B
136,64,174,153,134,-1.41,9.45,-2.22,-0.07,0,0.02,B
136,64,174,153,134,-1.38,9.3,-2.61,-0.11,0.01,0.03,B
136,64,174,153,134,-1.37,9.51,-2.27,-0.15,0.02,0.04,B
136,64,174,153,134,-1.25,9.56,-2.17,-0.15,0.01,0.02,B
136,64,174,153,135,-1.3,9.55,-2.09,-0.13,0.03,0.01,B
136,64,174,153,134,-1.38,9.37,-2.26,-0.11,0,0.02,B
136,64,174,153,135,-1.23,9.46,-2.16,-0.11,-0.01,0.02,B
136,64,174,153,134,-1.32,9.57,-2.05,-0.08,-0.03,0.02,B
136,64,173,153,134,-1.36,9.42,-2.48,-0.08,-0.08,0.03,B
136,64,173,153,135,-1.34,9.41,-2.31,-0.04,-0.03,-0.01,B
136,64,174,153,135,-1.47,9.53,-2.4,-0.05,0,-0.01,B
136,65,174,153,135,-1.47,9.39,-2.28,-0.1,-0.03,0,B
136,65,175,154,135,-1.33,9.43,-2.38,-0.08,-0.01,0.01,B
136,65,176,154,135,-1.43,9.51,-2.41,-0.1,0.02,0.02,B
137,67,176,154,136,-1.44,9.46,-2.41,-0.12,0.02,0.03,B
138,67,177,154,136,-1.24,9.55,-2.33,-0.09,-0.02,0.03,B
137,68,177,154,136,-1.39,9.4,-2.53,-0.15,-0.07,0.03,B
137,67,176,154,136,-1.45,9.49,-2.38,-0.14,-0.01,0.06,B
138,67,177,154,136,-1.14,9.51,-2.17,-0.13,0.07,0.04,B
138,67,176,154,136,-1.33,9.49,-1.97,-0.1,-0.04,0.03,B
138,68,176,154,136,-1.09,9.62,-2.07,-0.05,0,0.02,B
138,68,176,154,136,-0.97,9.43,-2.62,-0.01,-0.03,0,B
138,67,176,154,136,-1.47,9.44,-2.64,-0.08,-0.04,-0.02,B
137,67,176,154,136,-1.23,9.49,-2.42,-0.13,0.06,-0.02,B
138,66,176,154,136,-1.33,9.5,-2.33,-0.09,0,0,B
137,67,176,154,136,-1.49,9.53,-2.45,-0.09,0.04,0.01,B
137,67,176,154,136,-1.17,9.5,-2.6,-0.09,-0.03,0.01,B
137,66,176,154,136,-1.49,9.44,-2.33,-0.1,-0.02,0.01,B
138,66,176,154,136,-1.42,9.48,-2.42,-0.07,0.01,0.02,B
138,66,176,154,136,-1.29,9.45,-2.62,-0.09,0,0.02,B
138,66,176,154,137,-1.18,9.45,-2.41,-0.11,-0.02,0.02,B
138,67,176,154,136,-1.36,9.47,-2.53,-0.09,-0.02,0.01,B
138,67,176,154,136,-1.41,9.42,-2.52,-0.14,0.01,-0.01,B
138,66,176,154,136,-1.29,9.37,-2.4,-0.14,0.01,0.02,B
138,66,176,154,136,-1.43,9.47,-2.47,-0.13,0.01,0.02,B
138,67,176,155,136,-1.16,9.43,-2.44,-0.14,0.01,0.02,B
138,67,176,154,136,-1.2,9.48,-2.3,-0.11,-0.07,0.04,B
138,66,176,154,136,-1.32,9.49,-2.45,-0.1,-0.02,0.02,B
138,66,176,154,136,-1.24,9.45,-2.58,-0.12,-0.04,0.01,B
138,66,175,154,136,-1.4,9.45,-2.33,-0.14,-0.02,0.02,B
138,66,175,154,136,-1.3,9.55,-2.26,-0.14,-0.01,0.02,B
138,66,175,154,136,-1.2,9.44,-2.31,-0.13,-0.02,0.03,B
138,66,175,153,136,-1.45,9.55,-2.36,-0.13,-0.01,0.02,B
138,66,175,154,136,-1.36,9.44,-2.31,-0.14,0.01,0.01,B
138,66,175,154,136,-1.31,9.46,-2.27,-0.13,-0.01,0.03,B
138,65,175,154,136,-1.37,9.45,-2.3,-0.14,-0.02,0.02,B
138,66,175,154,136,-1.25,9.48,-2.28,-0.13,-0.01,0.03,B
138,65,175,154,136,-1.28,9.49,-2.28,-0.14,0.01,0.01,B
138,66,175,153,136,-1.3,9.44,-2.31,-0.14,0.02,0.02,B
138,66,175,154,136,-1.27,9.5,-2.18,-0.14,-0.03,0.04,B
138,66,175,154,136,-1.21,9.61,-2.06,-0.14,0.01,0.02,B
138,66,175,153,136,-1.13,9.5,-2.15,-0.12,-0.01,0.03,B
138,66,175,153,136,-1.2,9.48,-2.18,-0.11,-0.05,0.02,B
138,66,175,153,136,-1.24,9.49,-2.22,-0.14,-0.01,0.01,B
138,65,175,154,136,-1.2,9.51,-2.13,-0.12,0.01,0.01,B
138,65,175,153,137,-1.29,9.56,-2.11,-0.12,-0.02,0.01,B
139,66,175,153,136,-1.21,9.5,-2.11,-0.13,-0.02,0.03,B
138,65,175,154,136,-1.25,9.58,-2.1,-0.11,-0.01,0.03,B
138,66,175,153,136,-1.22,9.53,-2.2,-0.1,-0.02,0.01,B
138,66,175,153,136,-1.34,9.48,-2.16,-0.12,-0.02,0.01,B
138,65,175,153,136,-1.29,9.59,-2.14,-0.12,0.02,0.01,B
138,65,175,153,136,-1.18,9.5,-2.15,-0.12,0.01,0.01,B
138,65,175,153,136,-1.22,9.49,-2.13,-0.14,-0.01,0.03,B
138,66,175,153,136,-1.26,9.58,-2.06,-0.13,0,0.01,B
138,65,175,153,136,-1.25,9.52,-2.11,-0.11,0,0.01,B
138,66,175,153,136,-1.25,9.48,-2.12,-0.12,0,0.02,B
138,65,175,153,136,-1.2,9.5,-2.13,-0.13,0.01,0.02,B
138,65,174,153,136,-1.21,9.48,-2.08,-0.13,-0.02,0.02,B
138,65,174,153,136,-1.17,9.5,-2.03,-0.13,-0.01,0.01,B
138,66,174,153,136,-1.27,9.54,-2.06,-0.12,-0.01,0.02,B
138,66,174,153,136,-1.21,9.48,-2.1,-0.13,0,0.02,B
138,66,174,153,136,-1.29,9.52,-1.9,-0.13,-0.02,0.02,B
138,66,174,153,136,-1.13,9.53,-2.09,-0.1,-0.04,0.02,B
138,66,174,153,136,-1.33,9.5,-2,-0.13,-0.04,0.01,B
138,65,174,153,136,-1.25,9.47,-2.11,-0.13,-0.02,0.03,B
138,65,174,153,136,-1.26,9.58,-1.96,-0.13,-0.01,0.03,B
138,65,174,153,136,-1.19,9.55,-1.88,-0.13,0.01,0.02,B
138,66,174,153,136,-1.14,9.59,-2.03,-0.1,-0.05,0.04,B
138,65,174,152,136,-1.22,9.47,-2.05,-0.12,-0.01,0.01,B
138,65,174,153,136,-1.24,9.53,-1.9,-0.13,-0.03,0.01,B
138,65,174,153,136,-1.23,9.64,-1.72,-0.11,0.01,0.02,B
138,66,174,153,136,-1.13,9.56,-2,-0.06,0.01,0.01,B
138,65,174,153,136,-1.23,9.52,-2.09,-0.09,0,-0.01,B
138,65,174,153,136,-1.32,9.51,-1.95,-0.1,0.03,0,B
138,65,174,153,136,-1.17,9.55,-1.95,-0.1,-0.01,0.02,B
138,65,174,152,136,-1.29,9.5,-2.03,-0.1,0,0,B
139,65,174,152,136,-1.27,9.57,-2.01,-0.1,0,0.02,B
139,65,174,152,136,-1.23,9.59,-2.02,-0.1,-0.01,0.01,B
138,65,174,152,136,-1.24,9.55,-2.1,-0.11,0.02,0,B
138,65,174,153,136,-1.26,9.51,-2,-0.13,0.01,0.02,B
138,65,173,152,136,-1.22,9.55,-2.07,-0.11,0,0.02,B
138,65,173,152,136,-1.22,9.5,-2,-0.12,0.01,0.01,B
139,65,173,152,136,-1.21,9.49,-2.04,-0.11,-0.02,0.02,B
139,65,173,152,136,-1.22,9.62,-2.04,-0.14,0,0.01,B
138,65,173,152,136,-1.16,9.53,-1.92,-0.15,-0.03,0.02,B
138,65,173,152,135,-1.19,9.56,-1.81,-0.13,-0.04,0.03,B
139,65,173,152,136,-1.1,9.54,-1.88,-0.11,-0.03,0.01,B
139,65,173,152,136,-1.32,9.55,-1.96,-0.12,-0.03,0.01,B
138,65,173,152,136,-1.21,9.5,-1.93,-0.13,0,0.01,B
138,65,173,152,136,-1.22,9.57,-1.76,-0.13,-0.01,0.02,B
138,65,172,152,136,-1.32,9.57,-1.79,-0.11,0.01,0.01,B
138,65,172,152,136,-1.14,9.57,-1.83,-0.12,0.01,0.03,B
138,65,172,152,136,-1.02,9.61,-1.83,-0.09,-0.02,0.01,B
138,65,173,152,136,-1.28,9.49,-1.97,-0.09,-0.02,0.01,B
138,65,172,152,136,-1.23,9.56,-1.89,-0.11,0,0.02,B
139,65,173,152,136,-1.14,9.54,-1.89,-0.09,-0.01,0.01,B
139,65,172,152,136,-1.3,9.47,-2.03,-0.12,0.01,0.01,B
139,65,173,152,136,-1.14,9.58,-1.81,-0.1,0,0.01,B
139,65,173,152,136,-1.13,9.48,-1.83,-0.09,-0.02,0.02,B
139,65,173,152,136,-1.24,9.51,-2.07,-0.09,-0.04,0.03,B
139,65,172,152,136,-1.29,9.54,-1.93,-0.11,0.02,0,B
139,65,173,152,136,-1.21,9.61,-1.86,-0.11,-0.03,0.04,B
138,65,172,152,136,-1.13,9.5,-2,-0.1,-0.02,0.01,B
138,65,172,152,136,-1.21,9.52,-1.87,-0.12,-0.04,0.02,B
138,65,172,152,136,-1.29,9.6,-1.77,-0.1,-0.02,0.01,B
139,65,172,152,136,-1.12,9.47,-2.01,-0.09,-0.02,0.01,B
139,65,172,152,136,-1.27,9.56,-1.94,-0.12,0,0.02,B
139,65,172,152,136,-1.19,9.51,-1.92,-0.11,-0.02,0.03,B
139,65,172,152,136,-1.17,9.52,-1.85,-0.1,-0.04,0.04,B
139,65,172,152,136,-1.18,9.57,-2.01,-0.11,-0.04,0.02,B
138,65,172,152,136,-1.18,9.46,-1.85,-0.11,-0.03,0.01,B
139,65,172,152,136,-1.25,9.58,-1.9,-0.1,-0.01,0.03,B
139,65,172,152,136,-1.18,9.58,-1.84,-0.11,-0.02,0.01,B
139,65,172,152,136,-1.2,9.5,-1.92,-0.08,-0.05,0.02,B
139,65,172,152,136,-1.19,9.58,-1.92,-0.1,-0.03,0.02,B
139,65,172,152,136,-1.15,9.51,-2.02,-0.1,-0.03,0.02,B
139,65,172,152,136,-1.24,9.63,-1.85,-0.1,-0.01,0.01,B
139,65,172,152,136,-1.16,9.59,-1.81,-0.12,-0.01,0,B
138,66,173,154,137,-1,9.47,-2.04,-0.08,-0.09,0.01,B
138,65,174,157,137,-1.36,9.75,-1.71,-0.09,0.04,0,B
138,65,174,158,137,-1.13,9.51,-1.91,-0.09,0,0,B
138,65,174,159,136,-1.19,9.55,-2.1,-0.07,-0.06,0.03,B
138,65,174,159,136,-1.28,9.63,-1.92,-0.11,-0.03,0.01,B
139,65,174,159,137,-0.96,9.31,-2.1,-0.12,0,0.01,B
138,66,174,159,137,-1.32,9.64,-1.88,-0.13,0.06,0.02,B
138,65,174,158,137,-1.1,9.45,-2.15,-0.15,0.03,0.02,B
139,66,174,158,137,-1.08,9.51,-2.04,-0.12,-0.02,0.04,B
138,66,174,158,136,-1.22,9.67,-1.75,-0.11,-0.02,0.01,B
139,66,174,157,136,-1.1,9.4,-2.03,-0.1,-0.01,0.02,B
139,66,174,157,137,-1.14,9.59,-1.96,-0.13,-0.02,0.02,B
138,65,173,157,136,-1.28,9.47,-1.93,-0.12,-0.01,0.01,B
138,65,173,157,136,-1.19,9.61,-1.89,-0.12,-0.01,0.02,B
139,65,173,157,136,-1.19,9.6,-1.94,-0.11,-0.03,0.02,B
139,66,173,157,136,-1.24,9.61,-1.9,-0.11,-0.03,0.02,B
139,66,173,157,136,-1.08,9.52,-1.99,-0.11,-0.02,0.02,B
138,66,173,157,136,-1.21,9.58,-1.97,-0.12,0,0,B
138,65,173,157,136,-1.25,9.56,-1.87,-0.11,0,0.01,B
138,66,174,156,136,-1.19,9.58,-1.93,-0.1,-0.01,0.01,B
139,65,173,156,136,-1.15,9.56,-1.86,-0.09,0.01,-0.01,B
138,66,173,156,136,-1.18,9.54,-1.93,-0.09,-0.02,0,B
138,66,173,156,136,-1.24,9.57,-2.04,-0.09,-0.03,0.01,B
138,65,173,156,136,-1.2,9.54,-2.05,-0.1,-0.01,0.01,B
138,66,173,156,136,-1.3,9.51,-1.9,-0.11,-0.01,0.01,B
138,65,173,156,136,-1.25,9.48,-2.01,-0.11,0.01,0.03,B
138,65,173,156,136,-1.15,9.49,-1.98,-0.13,-0.03,0.03,B
138,66,173,156,136,-1.22,9.56,-1.96,-0.12,-0.03,0.03,B
138,65,173,156,136,-1.18,9.46,-2.08,-0.14,-0.03,0.02,B
138,66,173,156,136,-1.24,9.53,-1.9,-0.16,-0.03,0.03,B
138,66,173,156,136,-1.17,9.62,-1.75,-0.13,-0.03,0.03,B
139,65,173,156,136,-1.18,9.53,-1.85,-0.11,-0.01,0.01,B
138,65,173,156,136,-1.21,9.52,-1.94,-0.12,-0.04,0.02,B
139,65,173,156,136,-1.18,9.57,-1.79,-0.11,-0.01,0.01,B
139,65,173,156,136,-1.25,9.5,-1.8,-0.11,-0.02,0.02,B
139,65,173,156,136,-1.18,9.61,-1.75,-0.12,0.01,0.01,B
139,65,173,156,136,-1.18,9.57,-1.88,-0.09,0,0,B
139,65,172,156,135,-1.21,9.6,-1.91,-0.09,-0.03,0.01,B
139,65,173,155,136,-1.15,9.5,-1.88,-0.1,0.01,0,B
139,65,172,155,136,-1.24,9.52,-1.85,-0.1,0,0.01,B
139,65,173,156,136,-1.16,9.62,-1.98,-0.1,0.01,0.03,B
139,65,172,156,136,-1.2,9.58,-2.02,-0.12,-0.01,0.01,B
139,65,172,155,136,-1.25,9.55,-1.79,-0.1,0.02,0.01,B
139,65,172,155,136,-1.14,9.58,-1.91,-0.1,-0.02,0.02,B
139,65,172,155,136,-1.15,9.6,-1.8,-0.1,0,0.01,B
139,65,172,155,136,-1.19,9.52,-1.97,-0.08,0.01,-0.01,B
139,65,172,155,136,-1.4,9.47,-2.1,-0.08,-0.04,0,B
139,65,172,155,136,-1.29,9.46,-2.11,-0.12,-0.01,0.02,B
139,65,171,155,136,-1.25,9.51,-1.98,-0.13,-0.02,0.03,B
139,65,171,154,136,-1.34,9.59,-1.92,-0.1,-0.01,0.03,B
139,65,171,154,136,-1.19,9.52,-2.05,-0.13,0.01,0.02,B
139,65,171,155,136,-1.2,9.5,-1.82,-0.13,0.02,0.03,B
139,65,172,155,136,-0.99,9.56,-1.79,-0.1,-0.02,0.01,B
139,65,171,154,136,-1.29,9.56,-1.94,-0.09,-0.03,0.01,B
139,65,171,154,136,-1.3,9.49,-1.9,-0.12,0.01,0.02,B
139,65,172,154,136,-1.09,9.57,-1.87,-0.11,0.02,0.02,B
139,65,171,154,136,-1.18,9.49,-1.86,-0.09,-0.01,0,B
139,65,171,154,136,-1.23,9.47,-2.04,-0.1,-0.01,0.01,B
139,65,171,154,135,-1.23,9.45,-2.04,-0.12,-0.02,0.03,B
139,65,171,154,136,-1.22,9.55,-1.99,-0.13,0.01,0.03,B
139,65,171,154,135,-1.2,9.6,-1.75,-0.12,0.01,0.02,B
139,65,171,154,136,-1.16,9.5,-1.87,-0.11,-0.01,0.01,B
139,64,171,154,136,-1.12,9.59,-1.87,-0.1,-0.01,0.01,B
139,64,171,154,135,-1.17,9.49,-1.92,-0.1,0,0.01,B
139,64,171,154,136,-1.15,9.54,-1.93,-0.1,-0.01,0.03,B
139,64,171,154,136,-1.15,9.56,-1.88,-0.11,0,0,B
139,65,171,154,135,-1.16,9.48,-1.96,-0.11,-0.01,0.01,B
139,64,171,154,135,-1.32,9.62,-1.81,-0.1,-0.02,0.02,B
139,64,171,154,136,-1.15,9.54,-1.9,-0.1,0.01,0.02,B
139,64,171,154,135,-1.12,9.53,-1.87,-0.1,-0.03,0.02,B
139,64,171,154,135,-1.21,9.59,-1.87,-0.1,0.01,0.01,B
139,64,171,154,136,-1.08,9.52,-1.94,-0.1,0,0.01,B
139,65,171,154,136,-1.3,9.51,-1.84,-0.11,-0.01,0.02,B
139,64,171,154,136,-1.16,9.5,-1.88,-0.1,0,0.01,B
139,64,171,154,135,-1.21,9.58,-2,-0.11,-0.03,0.02,B
139,65,171,154,135,-1.17,9.6,-1.92,-0.12,0,0.02,B
139,64,171,154,136,-1.16,9.53,-1.92,-0.1,-0.03,0.02,B
139,64,171,154,136,-1.18,9.53,-2.01,-0.1,-0.01,0.01,B
139,64,171,154,136,-1.18,9.51,-1.9,-0.12,0,0.02,B
139,64,171,154,135,-1.15,9.57,-1.84,-0.11,0,0.02,B
139,64,171,154,135,-1.13,9.54,-1.94,-0.09,-0.01,0.01,B
139,64,171,154,135,-1.32,9.53,-1.97,-0.11,-0.01,0.02,B
139,64,171,154,135,-1.17,9.49,-2.02,-0.1,0.01,0.02,B
139,64,171,154,135,-1.08,9.54,-1.92,-0.13,-0.01,0.02,B
139,65,171,154,136,-1.26,9.63,-1.91,-0.1,-0.02,0.01,B
139,64,171,154,135,-1.08,9.56,-1.86,-0.11,-0.01,0.02,B
139,64,171,154,135,-1.27,9.56,-1.82,-0.09,-0.01,0,B
136,35,86,77,61,-2.6,9.13,-1.54,0,0,-0.12,C
136,35,86,77,61,-2.72,9.19,-1.67,-0.01,0,-0.08,C
136,35,86,76,61,-2.49,9.18,-1.65,-0.01,0.08,-0.1,C
137,35,86,76,61,-2.61,9.14,-1.91,-0.01,0.26,-0.17,C
138,35,86,76,61,-2.64,9.18,-1.95,-0.06,0.11,-0.11,C
139,35,86,76,61,-2.85,9.17,-1.79,-0.07,0.21,-0.17,C
140,35,86,76,61,-2.84,9.2,-1.86,-0.06,0.06,-0.08,C
141,35,86,77,61,-2.71,9.14,-1.92,-0.04,-0.09,-0.04,C
143,36,86,76,61,-2.71,9.15,-2.02,-0.05,-0.11,-0.05,C
143,36,86,76,61,-2.99,9.04,-1.98,-0.06,-0.04,-0.06,C
143,35,86,76,60,-3.19,9.11,-2.04,-0.06,0.03,-0.04,C
143,35,86,75,60,-3.04,9.05,-2.05,-0.07,-0.05,0,C
143,35,85,75,60,-2.98,9.1,-2.15,-0.1,-0.01,0.04,C
142,35,85,76,60,-2.84,9.16,-2.06,-0.11,0.01,0.02,C
142,35,85,76,60,-2.9,9.11,-1.96,-0.11,-0.03,0.03,C
141,35,85,76,60,-2.99,9.08,-1.92,-0.11,0,0.03,C
141,35,85,76,60,-2.95,9.1,-2.11,-0.12,0.03,0.03,C
140,35,85,76,60,-2.91,9.07,-2.1,-0.11,0.07,0.01,C
140,35,85,76,60,-3.02,9.05,-2,-0.12,-0.02,0.04,C
140,35,85,76,60,-2.83,9.14,-1.92,-0.11,0.01,0.03,C
140,35,85,76,60,-2.82,9.13,-1.92,-0.09,-0.05,0.04,C
140,35,85,76,60,-2.85,9.08,-2.07,-0.09,0.02,0,C
139,35,85,76,60,-2.88,9.11,-2.07,-0.1,-0.06,0.02,C
139,35,85,76,60,-2.9,9.14,-1.96,-0.11,-0.01,0.02,C
139,35,85,76,60,-2.76,9.1,-2.1,-0.09,0,0.02,C
138,35,85,76,60,-2.96,9.11,-2,-0.09,-0.01,0.01,C
139,35,85,76,60,-2.97,9.05,-2.03,-0.09,0.06,0,C
138,35,85,76,60,-2.88,9.14,-2.04,-0.09,0.03,0.04,C
139,35,85,76,60,-2.8,9.13,-2.23,-0.09,-0.01,0.05,C
139,35,85,76,60,-2.8,9.05,-2.15,-0.12,0,0,C
138,35,86,76,60,-2.96,9.11,-1.94,-0.13,-0.03,0.02,C
138,35,85,76,60,-2.89,9.14,-2.12,-0.11,0,0.02,C
138,35,85,76,60,-2.73,9.09,-2.09,-0.12,-0.02,0.01,C
138,35,85,76,60,-2.84,9.16,-2.05,-0.13,0.03,0,C
139,35,85,76,60,-2.88,9.18,-1.95,-0.11,-0.08,0.03,C
138,35,86,76,61,-2.91,9.08,-2.03,-0.11,0,0.02,C
139,35,85,76,61,-2.81,9.11,-2.04,-0.1,-0.03,0.04,C
138,35,85,76,61,-2.76,9.16,-2.01,-0.1,-0.02,0.04,C
138,35,86,76,61,-2.73,9.16,-2.01,-0.11,0,0.01,C
138,35,86,77,60,-2.9,9.13,-1.98,-0.1,0.01,0.01,C
138,36,86,76,60,-2.9,9.12,-2,-0.11,0.01,0.01,C
138,35,86,76,61,-2.89,9.15,-2.01,-0.09,-0.03,0.02,C
138,35,86,76,61,-2.83,9.09,-2.09,-0.1,0.03,0.02,C
138,35,86,76,61,-2.78,9.12,-2.15,-0.1,0,0.02,C
138,35,86,76,61,-2.73,9.17,-2.07,-0.12,-0.01,0.01,C
138,35,86,76,61,-2.85,9.58,-1.89,-0.08,-0.02,-0.02,C
137,35,86,76,60,-2.78,9.08,-2.05,-0.11,-0.02,0,C
138,35,86,76,61,-2.94,9.09,-2.14,-0.12,-0.02,0,C
137,35,85,76,61,-2.95,9.05,-2.16,-0.15,-0.03,0.02,C
137,35,85,76,61,-3.07,9.06,-2.12,-0.15,0.03,0.02,C
137,35,85,76,61,-2.84,9.1,-2.15,-0.21,-0.01,0.05,C
137,35,86,76,61,-2.75,9.14,-1.86,-0.21,-0.03,0.04,C
137,35,86,76,61,-2.63,9.24,-1.75,-0.17,-0.03,0.01,C
137,35,85,76,61,-2.81,9.23,-1.67,-0.14,-0.02,0,C
137,35,86,76,61,-2.9,9.19,-1.71,-0.09,0,-0.02,C
137,35,86,76,61,-2.94,9.1,-1.79,-0.08,-0.03,0,C
137,35,86,76,60,-2.93,9.17,-1.84,-0.06,0,0.01,C
137,35,86,76,61,-2.84,9.12,-1.94,-0.05,-0.01,0.02,C
137,36,86,76,61,-2.87,9.05,-2.02,-0.07,-0.01,0.02,C
137,35,86,76,61,-2.82,9.12,-1.94,-0.08,0.01,0.02,C
137,35,86,76,61,-2.76,9.11,-2.02,-0.09,0,0.02,C
137,35,86,76,61,-2.84,9.14,-1.94,-0.1,0.01,0.01,C
137,36,86,77,61,-2.8,9.08,-1.96,-0.09,-0.04,0.01,C
137,35,86,77,62,-2.89,9.14,-2.03,-0.08,-0.01,0.01,C
137,36,87,77,62,-2.84,9.1,-2.14,-0.07,-0.02,0,C
137,36,87,77,62,-2.91,9.05,-2.14,-0.12,-0.02,0.01,C
137,36,87,77,62,-2.88,9.09,-2.05,-0.14,0,0.02,C
137,35,87,78,62,-2.89,9.05,-1.98,-0.15,-0.04,0.04,C
137,35,87,77,62,-3.4,9.52,-1.62,-0.17,-0.04,0.13,C
137,35,87,77,62,-2.72,9.13,-2.06,-0.11,-0.11,0.11,C
137,36,87,77,62,-2.61,9.13,-2,-0.16,-0.12,0.09,C
137,36,86,77,62,-2.54,9.3,-1.57,-0.1,-0.12,0.09,C
137,35,87,78,62,-2.67,9.26,-1.52,-0.1,-0.15,0.08,C
137,35,86,77,62,-2.75,9.18,-1.89,-0.07,-0.04,0.07,C
137,35,86,78,62,-2.49,9.13,-1.94,-0.12,0.04,0.02,C
137,36,87,77,62,-2.51,9.17,-2.07,-0.13,0.04,0.05,C
137,36,86,77,62,-2.45,9.22,-1.99,-0.21,0.04,0,C
136,35,86,77,62,-2.6,9.23,-1.67,-0.22,0.02,-0.01,C
137,35,86,77,62,-2.6,9.3,-1.36,-0.19,0.01,-0.03,C
137,36,86,77,62,-2.55,9.26,-1.5,-0.13,-0.05,-0.03,C
137,36,86,78,62,-2.81,9.24,-1.39,-0.11,-0.12,0.03,C
137,35,87,77,62,-2.76,9.24,-1.72,-0.07,-0.08,0.04,C
137,35,86,77,62,-2.6,9.11,-2.04,-0.12,-0.08,0.02,C
137,36,86,77,62,-2.58,9.18,-1.79,-0.2,-0.08,0.01,C
137,36,86,77,62,-2.66,9.26,-1.37,-0.21,-0.04,-0.02,C
137,36,86,77,62,-2.68,9.32,-1.12,-0.15,-0.03,-0.01,C
137,35,86,78,62,-2.94,9.19,-1.43,-0.1,0,-0.01,C
137,36,86,78,62,-2.7,9.22,-1.46,-0.08,-0.02,0.02,C
137,35,86,77,62,-2.71,9.29,-1.35,-0.08,0,0.01,C
137,36,86,78,62,-2.77,9.26,-1.4,-0.04,-0.03,0.01,C
137,36,86,77,62,-2.75,9.23,-1.52,-0.02,-0.01,0,C
137,35,86,77,62,-2.82,9.24,-1.66,-0.03,0,0.02,C
137,35,86,77,62,-2.79,9.09,-1.93,-0.07,0.03,0,C
137,36,86,77,62,-2.63,9.22,-1.78,-0.11,0.02,0,C
137,36,86,77,62,-2.75,9.17,-1.67,-0.13,-0.02,0.01,C
137,35,86,77,62,-2.85,9.17,-1.62,-0.14,-0.03,0.03,C
137,36,86,77,62,-2.7,9.22,-1.58,-0.14,-0.03,0.02,C
137,36,86,77,62,-2.74,9.25,-1.7,-0.13,0.01,0,C
137,36,86,77,62,-2.78,9.19,-1.58,-0.13,-0.01,0.01,C
137,36,86,77,62,-2.68,9.19,-1.67,-0.13,0,0,C
137,35,86,78,62,-2.87,9.22,-1.63,-0.15,-0.02,0.04,C
137,36,86,77,62,-2.79,9.18,-1.51,-0.16,-0.01,0.02,C
137,35,86,77,62,-2.83,9.25,-1.34,-0.13,0.02,0.01,C
137,35,86,77,62,-2.65,9.21,-1.39,-0.1,0.01,0.02,C
137,36,86,77,62,-2.78,9.16,-1.63,-0.1,0,0.03,C
137,35,86,77,62,-2.7,9.15,-1.65,-0.12,0.02,0.01,C
137,36,86,77,62,-2.8,9.14,-1.59,-0.14,0.05,0.01,C
137,35,86,77,62,-2.7,9.26,-1.46,-0.14,-0.01,0.02,C
137,36,86,77,62,-2.72,9.28,-1.24,-0.1,0.01,0.01,C
137,36,86,77,62,-2.71,9.22,-1.57,-0.08,0.02,0.02,C
137,36,86,77,62,-2.72,9.24,-1.74,-0.09,0.02,0,C
137,36,86,77,62,-2.61,9.2,-1.55,-0.11,-0.03,0.02,C
137,35,86,77,62,-2.72,9.24,-1.36,-0.11,-0.03,0.02,C
137,35,87,77,62,-2.67,9.24,-1.55,-0.09,-0.01,0.03,C
137,35,86,77,61,-2.6,9.18,-1.64,-0.07,-0.02,0,C
137,36,86,77,61,-2.84,9.13,-1.76,-0.09,0,0.02,C
137,35,86,77,62,-2.57,9.24,-1.53,-0.12,-0.02,0.02,C
137,36,86,78,62,-2.72,9.26,-1.57,-0.09,0.02,-0.01,C
137,36,86,77,62,-2.82,9.23,-1.57,-0.06,-0.01,0.01,C
137,36,86,77,61,-2.87,9.04,-1.93,-0.1,-0.02,0.03,C
136,35,86,77,62,-2.72,9.28,-1.39,-0.13,-0.04,0.04,C
136,36,87,77,62,-2.7,9.21,-1.51,-0.08,-0.03,0.03,C
137,35,86,78,62,-2.84,9.11,-1.95,-0.09,-0.01,0,C
136,36,87,77,62,-2.79,9.18,-1.77,-0.16,0,0.01,C
136,36,87,77,62,-2.73,9.22,-1.41,-0.16,0.01,0.01,C
136,36,86,78,62,-2.63,9.24,-1.52,-0.12,0.02,0.01,C
136,35,86,77,62,-2.66,9.24,-1.45,-0.14,0,0.02,C
136,35,86,78,62,-2.67,9.26,-1.42,-0.1,-0.02,0.03,C
136,36,86,77,62,-2.65,9.19,-1.58,-0.1,-0.01,0.01,C
136,35,86,77,62,-2.8,9.19,-1.67,-0.1,-0.01,0.02,C
136,36,86,78,62,-2.78,9.17,-1.53,-0.1,-0.04,0.03,C
136,36,86,78,62,-2.69,9.18,-1.65,-0.1,0,0.02,C
136,36,86,78,62,-2.67,9.25,-1.59,-0.12,-0.04,0.01,C
136,36,87,78,62,-2.85,9.12,-1.73,-0.14,-0.01,-0.01,C
136,36,87,78,62,-2.83,9.27,-1.26,-0.16,-0.01,0.01,C
136,36,87,78,62,-2.73,9.28,-1.45,-0.1,0.03,0,C
136,35,86,78,62,-2.6,9.27,-1.45,-0.09,0,0.01,C
136,36,86,78,62,-2.8,9.14,-1.52,-0.09,-0.03,0.02,C
136,36,87,78,62,-2.75,9.21,-1.46,-0.07,0,0.01,C
136,36,86,78,62,-2.6,9.15,-1.58,-0.06,0,0.01,C
136,36,87,78,62,-2.78,9.18,-1.7,-0.08,-0.03,0.03,C
136,35,87,78,62,-2.83,9.15,-1.72,-0.12,-0.03,0.02,C
136,35,87,78,62,-2.68,9.21,-1.58,-0.11,0.03,0.02,C
136,36,86,78,62,-2.49,9.27,-1.56,-0.11,0.03,0.01,C
136,36,87,78,62,-2.75,9.2,-1.53,-0.08,0.02,0.01,C
136,36,87,78,62,-2.72,9.21,-1.58,-0.09,-0.02,0.03,C
136,35,87,78,62,-2.68,9.2,-1.57,-0.08,-0.05,0.03,C
136,35,86,78,62,-2.7,9.25,-1.52,-0.07,0.02,-0.01,C
136,36,86,77,62,-2.69,9.22,-1.66,-0.03,0.04,-0.01,C
136,35,87,78,62,-2.83,9.16,-1.83,-0.08,-0.02,0.03,C
136,36,86,78,62,-2.88,9.12,-1.91,-0.09,0.03,0.01,C
136,35,86,78,62,-2.79,9.25,-1.7,-0.1,0.02,0,C
136,35,86,78,62,-2.72,9.21,-1.52,-0.07,0,0.02,C
136,36,87,78,62,-2.75,9.2,-1.76,-0.06,0.02,0.02,C
135,36,86,78,62,-2.57,9.2,-1.78,-0.03,-0.01,0.01,C
136,36,86,78,62,-2.68,9.15,-1.97,-0.06,-0.02,0.04,C
135,35,87,78,62,-2.62,9.22,-1.91,-0.08,-0.02,0.01,C
136,36,86,78,62,-2.72,9.13,-1.88,-0.09,0,0.02,C
135,36,87,78,62,-2.81,9.21,-1.92,-0.07,0.01,0.02,C
135,36,87,78,61,-2.77,9.19,-2.02,-0.05,0.03,0.03,C
135,36,86,77,62,-2.62,9.19,-2.02,-0.1,0.02,0.02,C
135,36,87,78,61,-2.65,9.19,-1.95,-0.07,0,0.01,C
136,35,87,78,62,-2.65,9.12,-2.05,-0.1,0.03,0.01,C
135,35,87,78,62,-2.63,9.17,-2.06,-0.11,0.03,0,C
135,36,86,78,61,-2.68,9.19,-2.02,-0.13,-0.01,0,C
135,35,87,78,61,-2.72,9.13,-1.93,-0.13,0.01,0,C
135,36,86,78,62,-2.68,9.17,-1.92,-0.12,0,0,C
135,36,87,78,62,-2.75,9.18,-1.88,-0.12,-0.01,0.01,C
135,36,86,78,62,-2.78,9.17,-1.94,-0.11,-0.03,0.01,C
135,35,86,78,61,-2.75,9.14,-2.02,-0.12,0,0.03,C
135,36,86,78,62,-2.8,9.13,-2.03,-0.15,0,0.02,C
136,35,87,78,62,-2.69,9.28,-1.85,-0.14,0.01,0.03,C
135,36,86,78,62,-2.63,9.19,-1.81,-0.13,-0.01,0.03,C
135,35,87,78,62,-2.76,9.18,-1.9,-0.12,0.01,0.02,C
135,35,86,78,62,-2.57,9.2,-1.84,-0.13,-0.04,0.02,C
135,36,86,78,62,-2.69,9.17,-1.85,-0.12,0,0.01,C
135,36,86,78,62,-2.78,9.22,-1.84,-0.11,-0.02,0.01,C
135,36,86,78,62,-2.8,9.18,-1.87,-0.12,0,0.01,C
135,36,86,78,62,-2.55,9.26,-1.72,-0.12,-0.01,0.02,C
135,36,86,78,62,-2.7,9.18,-1.94,-0.1,-0.03,0.02,C
136,36,87,78,62,-2.61,9.2,-1.83,-0.12,-0.01,0.01,C
136,35,86,78,62,-2.71,9.16,-1.82,-0.13,-0.04,0.03,C
135,35,86,78,62,-2.65,9.15,-1.81,-0.12,-0.01,0.02,C
136,35,86,78,62,-2.7,9.2,-1.89,-0.11,0,0.02,C
135,36,86,78,62,-2.6,9.21,-1.78,-0.13,-0.03,0.02,C
135,36,86,78,62,-2.77,9.23,-1.81,-0.12,-0.01,0.01,C
135,36,87,78,62,-2.7,9.17,-1.84,-0.11,-0.02,0.02,C
135,35,86,78,62,-2.65,9.17,-1.91,-0.13,-0.02,0.01,C
135,36,87,78,62,-2.77,9.18,-1.71,-0.14,-0.04,0.03,C
135,36,87,78,62,-2.71,9.28,-1.6,-0.1,0.02,0,C
135,36,86,78,62,-2.73,9.2,-1.8,-0.08,-0.01,0.01,C
136,35,87,78,62,-2.79,9.11,-1.93,-0.1,0.03,0,C
135,36,87,78,62,-2.8,9.18,-1.86,-0.14,-0.01,0.03,C
136,36,86,78,62,-2.62,9.25,-1.74,-0.12,0.05,0.02,C
135,35,86,78,62,-2.68,9.17,-1.84,-0.12,0.01,0.03,C
135,36,87,78,62,-2.63,9.22,-1.77,-0.12,-0.01,0.01,C
135,35,87,78,62,-2.69,9.18,-1.77,-0.13,-0.02,0.01,C
135,36,87,78,62,-2.63,9.18,-1.79,-0.12,-0.02,0.02,C
136,36,87,78,62,-2.67,9.22,-1.62,-0.12,-0.02,0.02,C
136,36,87,78,62,-2.67,9.21,-1.7,-0.1,-0.02,0.02,C
136,36,86,78,62,-2.6,9.28,-1.67,-0.09,-0.03,0.02,C
135,35,86,78,62,-2.64,9.16,-1.84,-0.1,-0.01,0,C
135,36,86,78,62,-2.69,9.23,-1.74,-0.1,0.01,0,C
135,36,87,78,62,-2.67,9.21,-1.83,-0.1,0,0.02,C
136,36,86,78,62,-2.63,9.22,-1.68,-0.08,0,0.01,C
135,36,87,78,62,-2.66,9.17,-1.92,-0.09,-0.02,0.02,C
135,36,87,78,62,-2.71,9.2,-1.78,-0.09,-0.01,0.02,C
135,36,87,78,62,-2.7,9.17,-1.84,-0.1,-0.02,0.03,C
136,36,87,78,62,-2.66,9.22,-1.75,-0.11,-0.03,0.02,C
136,35,86,78,62,-2.73,9.21,-1.71,-0.09,0.02,0.01,C
136,35,87,78,62,-2.74,9.2,-1.81,-0.09,0,0.03,C
135,35,87,78,62,-2.6,9.18,-1.87,-0.08,0.03,0.01,C
135,36,87,78,62,-2.69,9.22,-1.81,-0.09,-0.01,0.01,C
136,36,87,78,62,-2.73,9.17,-1.76,-0.09,0.01,0.01,C
136,36,86,78,62,-2.72,9.22,-1.8,-0.06,0.01,0.01,C
136,36,87,78,62,-2.66,9.17,-2.07,-0.07,0.03,0.01,C
135,36,87,78,62,-2.55,9.21,-2,-0.09,0.02,0.01,C
136,35,86,78,62,-2.69,9.16,-2.02,-0.1,0.02,0.01,C
136,35,86,78,62,-2.77,9.18,-1.81,-0.11,-0.02,0.02,C
135,36,87,78,62,-2.67,9.23,-1.88,-0.1,0.02,0.02,C
135,36,87,78,62,-2.61,9.17,-1.9,-0.11,-0.03,0.03,C
135,36,87,78,62,-2.67,9.14,-1.99,-0.1,0.01,0.02,C
135,35,87,78,62,-2.64,9.17,-2.04,-0.12,-0.02,0.03,C
135,36,87,78,62,-2.67,9.21,-1.93,-0.15,0.01,0.01,C
136,36,87,78,62,-2.6,9.22,-1.79,-0.13,0.03,0.01,C
135,35,87,78,62,-2.6,9.21,-1.83,-0.11,0.01,0.01,C
135,36,87,78,62,-2.66,9.23,-1.95,-0.11,-0.03,0.01,C
135,36,87,78,62,-2.69,9.16,-1.91,-0.12,-0.03,0.02,C
135,36,87,78,62,-2.67,9.22,-1.9,-0.14,-0.01,0.02,C
136,35,86,78,62,-2.6,9.17,-1.78,-0.14,-0.03,0.03,C
135,36,86,78,62,-2.59,9.23,-1.79,-0.14,0.01,0.02,C
135,36,87,78,62,-2.57,9.24,-1.72,-0.12,0.01,0.01,C
135,36,86,78,62,-2.77,9.18,-1.77,-0.12,0.04,0,C
135,35,87,78,62,-2.64,9.23,-1.74,-0.09,0,0.01,C
135,36,86,78,62,-2.75,9.18,-1.88,-0.09,0.02,0.01,C
135,35,86,78,62,-2.74,9.18,-1.96,-0.1,-0.01,0.03,C
135,36,87,78,62,-2.67,9.21,-1.86,-0.12,0,0.06,C
135,36,87,78,62,-2.6,9.22,-1.88,-0.11,0.01,0.04,C
135,36,86,78,62,-2.52,9.18,-1.89,-0.13,-0.01,0.04,C
135,36,86,78,62,-2.5,9.3,-1.74,-0.13,0.01,0.03,C
135,35,86,78,62,-2.5,9.29,-1.71,-0.11,0,0.02,C
135,36,87,78,62,-2.45,9.33,-1.69,-0.07,-0.02,0,C
135,36,86,78,62,-2.55,9.2,-1.8,-0.05,-0.07,-0.01,C
135,35,86,78,62,-2.81,9.2,-1.96,-0.08,-0.04,0.01,C
135,36,87,78,62,-2.73,9.17,-1.94,-0.08,-0.01,0.01,C
135,35,87,78,62,-2.63,9.22,-1.93,-0.1,0.04,0.01,C
135,36,86,78,62,-2.59,9.26,-1.84,-0.1,-0.01,0.02,C
135,35,86,78,62,-2.69,9.19,-1.91,-0.1,-0.02,0.02,C
135,35,87,78,62,-2.51,9.23,-1.88,-0.1,0.02,0.03,C
135,36,86,78,62,-2.65,9.03,-2.22,-0.12,0.08,0.06,C
135,36,87,78,61,-2.61,9.21,-2.13,-0.12,-0.07,0.03,C
135,36,87,78,62,-2.54,9.11,-2.02,-0.15,-0.02,0.01,C
135,36,87,78,61,-2.54,9.24,-1.89,-0.16,-0.03,0.03,C
135,36,87,78,61,-2.51,9.29,-1.65,-0.14,-0.07,0.03,C
135,36,87,78,61,-2.49,9.28,-1.72,-0.11,-0.02,0.01,C
135,35,87,78,62,-2.48,9.21,-1.73,-0.12,-0.04,0.01,C
135,35,87,78,62,-2.82,9.26,-1.71,-0.07,-0.02,-0.02,C
135,36,86,78,62,-2.83,9.24,-1.84,-0.05,0.02,0.01,C
135,36,87,78,62,-2.51,9.25,-1.84,-0.05,-0.03,0.02,C
135,36,86,78,62,-2.64,9.18,-2.01,-0.07,0.01,0,C
134,36,87,78,62,-2.63,9.19,-1.98,-0.08,0.03,0.02,C
135,36,86,78,62,-2.55,9.15,-2.13,-0.11,-0.1,0.05,C
135,36,86,78,62,-2.57,9.25,-1.96,-0.14,-0.01,0.02,C
135,35,87,78,62,-2.73,9.24,-1.61,-0.13,0,0,C
134,35,86,78,61,-2.39,9.38,-1.53,-0.03,0,0.01,C
135,35,87,78,61,-2.46,9.19,-2.06,-0.01,-0.05,0,C
135,35,87,78,61,-2.71,9.17,-2.17,-0.05,-0.04,0.01,C
135,36,87,78,61,-2.65,9.2,-1.99,-0.1,-0.04,0.04,C
134,36,87,78,62,-2.67,9.15,-2.15,-0.09,-0.01,0.03,C
135,35,87,78,61,-2.6,9.16,-2.08,-0.11,-0.02,0.02,C
134,36,87,78,62,-2.53,9.26,-1.94,-0.12,0,0.02,C
135,35,87,78,61,-2.65,9.17,-2.09,-0.11,0.02,0.02,C
135,35,86,78,61,-2.55,9.22,-1.92,-0.11,0.02,0.01,C
134,35,86,78,61,-2.57,9.17,-1.99,-0.11,-0.01,0.03,C
135,36,87,78,61,-2.56,9.21,-2.06,-0.12,0.02,0.03,C
135,35,87,78,61,-2.54,9.17,-2.09,-0.15,0.02,0.03,C
135,36,87,78,61,-2.53,9.25,-1.84,-0.14,0.01,0.01,C
135,35,86,78,61,-2.58,9.22,-1.99,-0.14,0,0.01,C
134,36,87,78,62,-2.57,9.21,-1.93,-0.14,0,0.02,C
135,36,87,78,62,-2.5,9.24,-1.93,-0.13,0.01,0.01,C
134,36,87,78,62,-2.53,9.28,-1.77,-0.12,-0.01,0.02,C
135,36,87,78,61,-2.54,9.25,-1.95,-0.09,-0.01,-0.01,C
135,36,87,78,61,-2.61,9.22,-1.87,-0.09,0.01,0.01,C
135,36,87,78,61,-2.52,9.28,-1.92,-0.08,-0.04,0.03,C
135,36,87,78,62,-2.64,9.24,-1.93,-0.09,-0.01,0.02,C
134,36,87,77,62,-2.5,9.24,-1.95,-0.09,-0.02,0.01,C
135,36,87,78,61,-2.58,9.18,-1.96,-0.09,0.01,0.01,C
135,36,87,78,61,-2.56,9.18,-2,-0.09,0,0.02,C
135,36,87,78,62,-2.58,9.22,-2.05,-0.09,0,0.02,C
134,36,87,78,61,-2.71,9.23,-1.91,-0.11,0.01,0.02,C
135,36,86,78,62,-2.45,9.29,-1.92,-0.08,0.01,0.04,C
135,36,87,78,62,-2.34,9.28,-2.02,-0.07,-0.02,0,C
134,36,87,78,62,-2.69,9.2,-2,-0.05,0,0,C
135,36,87,78,61,-2.53,9.22,-2.15,-0.06,-0.02,0.01,C
135,35,87,78,62,-2.62,9.19,-2.08,-0.09,-0.01,0.02,C
134,35,87,78,62,-2.45,9.25,-2.03,-0.08,-0.03,0.01,C
135,35,87,78,61,-2.57,9.22,-2.04,-0.04,0,0.01,C
135,35,87,78,62,-2.6,9.22,-2.25,-0.05,-0.01,0.01,C
135,35,87,78,62,-2.6,9.18,-2.16,-0.08,0,0.01,C
134,36,87,78,62,-2.44,9.14,-2.26,-0.1,0,0.01,C
134,36,87,78,62,-2.59,9.24,-2.06,-0.09,0,0,C
134,35,87,78,62,-2.6,9.17,-2.11,-0.06,0.02,0.01,C
134,36,87,78,62,-2.49,9.2,-2.26,-0.06,-0.04,0.02,C
134,35,87,78,62,-2.61,9.12,-2.32,-0.08,-0.03,0.02,C
134,36,87,78,62,-2.63,9.18,-2.26,-0.07,-0.04,0.02,C
134,35,87,78,62,-2.58,9.12,-2.34,-0.1,-0.01,0.04,C
134,35,87,78,62,-2.48,9.17,-2.42,-0.11,-0.01,0.01,C
134,36,87,78,62,-2.54,9.23,-2.17,-0.14,-0.02,0.03,C
135,35,87,78,62,-2.61,9.22,-2.19,-0.11,0.01,0.01,C
134,35,87,78,62,-2.49,9.21,-2.25,-0.11,0.01,0,C
134,35,87,78,62,-2.55,9.23,-2.23,-0.1,-0.06,0.01,C
134,36,87,78,62,-2.62,9.17,-2.28,-0.1,0.01,0.01,C
134,36,87,78,62,-2.47,9.17,-2.32,-0.1,-0.01,0.01,C
134,36,87,78,62,-2.6,9.19,-2.25,-0.11,-0.03,0.02,C
134,36,87,78,62,-2.66,9.16,-2.37,-0.11,-0.02,0.01,C
134,36,87,78,62,-2.62,9.21,-2.24,-0.13,0.02,0.01,C
134,36,87,78,62,-2.53,9.19,-2.15,-0.12,0,0.02,C
134,36,87,78,62,-2.63,9.2,-2.22,-0.11,-0.01,0.01,C
134,36,87,78,62,-2.57,9.14,-2.3,-0.11,0,0.01,C
